Common name,Catalog,SMILES_results,Purity (manufacturer),Purification Sample ID,Target ID,Buffer,Temperature (°C),Incubation time (min),Protein concentration (nM),Peptide concentration (nM),Donor /Acceptor beads,Donor concentration (nM),Acceptor concentration (nM),Max concentration (µM),Donor fluorescence response_run 1,Acceptor fluorescence response_run 1,Acceptor/Donor*1000_Ratio_run 1,Donor fluorescence response_run 2,Acceptor fluorescence response_run 2,Acceptor/Donor*1000_Ratio_run 2,Positive DMSO control_Ratio Avg_run 1,Negative DMSO control_Ratio Avg_run 1,% Inhibition _run 1,Positive DMSO control_Ratio Avg_run 2,Negative DMSO control_Ratio Avg_run 2,% Inhibition _run 2,Plate Z-Prime _run1,Plate Z-Prime _run 2,Plate S/B_run 1,Plate S/B_run 2,SD_Plate_run 1,AVG_Plate_run 1,SD_Plate_run 2,AVG_Plate_run 2,Cut-off 30% inh_hit yes/no_run 1,Cut-off 30% inh_hit yes/no_run 2,Unnamed: 39,Ratio,Unnamed: 41,Unnamed: 42,Ratio_No protein control,Unnamed: 44,Unnamed: 45,AVG Max (0% inhibition)_ratio,AVG Min (100% inhibition)_ratio,Inhibition% = 100-((ratio_Sample-ratio_no protein)/(ratio_DMSO control - ratio_no protein)),Unnamed: 49,Unnamed: 50,% of fluorescence interference (no protein control),Unnamed: 52,Unnamed: 53,Plate Z-Prime,Plate S/B,"DECISION: compounds with inhibition of 30% at 100 uM, or overflow are passed to solubility by DLS",Common Name,% Laser Power,Unnamed: 59,Intensity (kcnt/s),Unnamed: 61,DECISION: use DLS data to guide top concentration in SPR,KD (M)_Run 1,KD (uM)_Run 1,T(KD)_Run 1,Rmax (RU)_Run 1,T(Rmax)_Run 1,offset (RU)_Run 1,T(offset)_Run 1,Affinity Chi² (RU²)_Run 1,% Binding (%)_Run 1,Rmax(Thr) (RU),Top  concentration used (uM),DECISION,Participant ID,smiles,Enamine catalog ID,mol_weight,logP,PAINS passed [y/n],Collection_sub,dG Bind,Adjust dG Bind,cluster,SMILES_submission,Customer_Code,Catalog_ID,Purity_prc,Amount_umol,Stock_Available,Collection_quote,Price_USD,StereoComment,Replacement_SMILES,Replacement_ID,rank_second_submission,advanced_to_round_2
CACHE3HI_1715_1,Z1039058654,CCOc1ccccc1N1CCN(CC1)c1c2cc[nH]c2ncn1,95.0,nsp3_SARS2:MVC039-H10:P222987,NSP3_SARS2,"25 mM HEPES pH 7.0, 20 mM NaCl, 0.05% BSA, 0.05% Tween-20",RT,"30 cmpds, 60 D/A",12.5,200.0,Terbium-cryptate anti-His Mab/XL-665 conjugated streptavidin,0.031,5.0,100.0,1541,3660,2375.1,1094,2427,2218.5,2486.4,115.3,4.7,2255.8,112.0,1.7,0.8,0.89,21.6,20.1,22.6,9.3,22.3,9.8,No,No,,,,,,,,,,,,,,,,,,,,,,,,,,,,,,,,,,,,,1715,c1cccc(OCC)c1N(CC2)CCN2c3ncnc(c34)[nH]cc4,Z1039058654,323.397,2.6832,y,QSAR,-39.59,-68.59,18,CCOC=1C=CC=CC1N2CCN(CC2)C=3N=CN=C4NC=CC34,Z1039058654,Z1039058654,90,3,YES,HTS,13.5,Achiral|None|,,,1,0.0
CACHE3HI_1715_10,Z1159172857,CCOC(c1c(C)nn2C(C=C(CN(C)c3cccc4ccccc34)Nc12)=O)=O,98.0,nsp3_SARS2:MVC039-H10:P222987,NSP3_SARS2,"25 mM HEPES pH 7.0, 20 mM NaCl, 0.05% BSA, 0.05% Tween-20",RT,"30 cmpds, 60 D/A",12.5,200.0,Terbium-cryptate anti-His Mab/XL-665 conjugated streptavidin,0.031,5.0,100.0,1193,2728,2286.7,1235,2985,2417,2416.6,106.2,5.6,2554.9,116.0,7.7,0.8,0.89,22.7,22.5,18.9,4.3,17.8,5.8,No,No,,,,,,,,,,,,,,,,,,,,,,,,,,,,,,,,,,,,,1715,CCOC(=O)c1c(C)nn(c12)c(=O)cc([nH]2)CN(C)c3cccc(c34)cccc4,Z1159172857,390.441,3.29732,y,VAE,-51.66,-51.66,89,CCOC(=O)C=1C(C)=NN2C(=O)C=C(CN(C)C=3C=CC=C4C=CC=CC34)NC12,Z1159172857,Z1159172857,90,3,YES,HTS,13.5,Achiral|None|,,,10,0.0
CACHE3HI_1715_100,Z1739540679,C1CN(CCC1c1c(cccc1F)F)c1c2cn[nH]c2ncn1,100.0,nsp3_SARS2:MVC039-H10:P222987,NSP3_SARS2,"25 mM HEPES pH 7.0, 20 mM NaCl, 0.05% BSA, 0.05% Tween-20",RT,"30 cmpds, 60 D/A",12.5,200.0,Terbium-cryptate anti-His Mab/XL-665 conjugated streptavidin,0.031,5.0,100.0,11659,8387,719.4,8577,7195,838.9,2419.5,111.3,73.7,2447.0,109.5,68.8,0.85,0.85,21.7,22.2,25.4,14.3,25.0,13.5,Yes,Yes,CACHE3HI_1715_100,668,956.5,1490,318.3,291.5,181.4,2327.0,138.7,75.8,62.6,38.2,8.2,7,2,0.83,16.8,Passed HTRF,CACHE3HI_1715_100,75,85,1326,1251,flag,4.33e-06,4.33,2.9,5.3,12.59,-1.88,-4.52,0.2,38.7,13.6,100.0,,1715,c1n[nH]c(c12)ncnc2N(CC3)CCC3c4c(F)cccc4F,Z1739540679,315.325,3.0151,y,QSAR,-42.59,-71.59,1,FC=1C=CC=C(F)C1C2CCN(CC2)C=3N=CN=C4NN=CC34,Z1739540679,Z1739540679,90,3,NO,sRDB,83.2,Achiral|None|,,,100,0.0
CACHE3HI_1715_11,Z117563662,C1CC(N(C1)c1ccc(CNC(c2cccc(c2)S(NCc2ccccc2)(=O)=O)=O)cc1)=O,95.0,nsp3_SARS2:MVC039-H10:P222987,NSP3_SARS2,"25 mM HEPES pH 7.0, 20 mM NaCl, 0.05% BSA, 0.05% Tween-20",RT,"30 cmpds, 60 D/A",12.5,200.0,Terbium-cryptate anti-His Mab/XL-665 conjugated streptavidin,0.031,5.0,100.0,1736,4037,2325.5,2013,5291,2628.4,2416.6,106.2,3.9,2554.9,116.0,-0.8,0.8,0.89,22.7,22.5,18.9,4.3,17.8,5.8,No,No,,,,,,,,,,,,,,,,,,,,,,,,,,,,,,,,,,,,,1715,O=C1CCCN1c(cc2)ccc2CNC(=O)c3cc(ccc3)S(=O)(=O)NCc4ccccc4,Z117563662,463.55,,y,HTS,-67.46065424,-67.46065424,21,O=C(NCC=1C=CC(=CC1)N2CCCC2=O)C=3C=CC=C(C3)S(=O)(=O)NCC=4C=CC=CC4,Z117563662,Z117563662,90,3,YES,HTS,13.5,Achiral|None|,,,11,0.0
CACHE3HI_1715_12,Z1230787587,Cc1cc2c(cc1C)n(CC(CNCc1c[nH]nc1c1ccc3c(c1)OCCO3)O)cn2,100.0,nsp3_SARS2:MVC039-H10:P222987,NSP3_SARS2,"25 mM HEPES pH 7.0, 20 mM NaCl, 0.05% BSA, 0.05% Tween-20",RT,"30 cmpds, 60 D/A",12.5,200.0,Terbium-cryptate anti-His Mab/XL-665 conjugated streptavidin,0.031,5.0,100.0,1753,4718,2691.4,1224,2861,2337.4,2486.4,115.3,-8.6,2255.8,112.0,-3.8,0.8,0.89,21.6,20.1,22.6,9.3,22.3,9.8,No,No,,,,,,,,,,,,,,,,,,,,,,,,,,,,,,,,,,,,,1715,Cc(c1)c(C)cc(c12)n(cn2)C[C@H](O)C[NH2+]Cc3c(n[nH]c3)-c(c4)ccc(c45)OCCO5,Z1230787587,433.509,1.93894,y,VAE,-52.39,-52.39,48,CC=1C=C2N=CN(CC(O)CNCC3=CNN=C3C=4C=CC=5OCCOC5C4)C2=CC1C,Z1230787587,Z1230787587,90,3,YES,HTS,13.5,Racemic or presumed racemic or meso|None|,Cc1cc2ncn(CC(O)CNCc3c[nH]nc3c4ccc5OCCOc5c4)c2cc1C,Z1230787587,12,0.0
CACHE3HI_1715_13,Z1269787012,C(C1=COCCO1)NC(c1ccccc1c1ncc(c2ccccc2F)o1)=O,90.0,nsp3_SARS2:MVC039-H10:P222987,NSP3_SARS2,"25 mM HEPES pH 7.0, 20 mM NaCl, 0.05% BSA, 0.05% Tween-20",RT,"30 cmpds, 60 D/A",12.5,200.0,Terbium-cryptate anti-His Mab/XL-665 conjugated streptavidin,0.031,5.0,100.0,1327,3092,2330.1,923,1998,2164.7,2486.4,115.3,6.6,2255.8,112.0,4.3,0.8,0.89,21.6,20.1,22.6,9.3,22.3,9.8,No,No,,,,,,,,,,,,,,,,,,,,,,,,,,,,,,,,,,,,,1715,O1CCOC=C1CNC(=O)c2c(cccc2)-c(o3)ncc3-c4c(F)cccc4,Z1269787012,380.375,,y,HTS,-70.04451813,-70.04451813,8,FC=1C=CC=CC1C2=CN=C(O2)C=3C=CC=CC3C(=O)NCC4=COCCO4,Z1269787012,Z1269787012,90,3,YES,HTS,13.5,Achiral|None|,,,13,0.0
CACHE3HI_1715_14,Z1272617165,CC(C)N1C(CN(CC1(C)C)c1c2cc[nH]c2ncn1)=O,100.0,nsp3_SARS2:MVC039-H10:P222987,NSP3_SARS2,"25 mM HEPES pH 7.0, 20 mM NaCl, 0.05% BSA, 0.05% Tween-20",RT,"30 cmpds, 60 D/A",12.5,200.0,Terbium-cryptate anti-His Mab/XL-665 conjugated streptavidin,0.031,5.0,100.0,1650,4038,2447.3,1092,2394,2192.3,2486.4,115.3,1.6,2255.8,112.0,3,0.8,0.89,21.6,20.1,22.6,9.3,22.3,9.8,No,No,,,,,,,,,,,,,,,,,,,,,,,,,,,,,,,,,,,,,1715,CC(C)N1C(=O)CN(CC1(C)C)c2ncnc(c23)[nH]cc3,Z1272617165,287.364,1.7935,y,QSAR,-37.78,-66.78,10,CC(C)N1C(=O)CN(CC1(C)C)C=2N=CN=C3NC=CC23,Z1272617165,Z1272617165,90,3,YES,HTS,13.5,Achiral|None|,,,14,0.0
CACHE3HI_1715_15,Z1329095102,Cc1nc2c3ccccc3nc(N3CCCCC3C(N3CCOCC3)=O)n2n1,91.0,nsp3_SARS2:MVC039-H10:P222987,NSP3_SARS2,"25 mM HEPES pH 7.0, 20 mM NaCl, 0.05% BSA, 0.05% Tween-20",RT,"30 cmpds, 60 D/A",12.5,200.0,Terbium-cryptate anti-His Mab/XL-665 conjugated streptavidin,0.031,5.0,100.0,1460,3541,2425.3,1705,4550,2668.6,2416.6,106.2,-0.4,2554.9,116.0,-2.4,0.8,0.89,22.7,22.5,18.9,4.3,17.8,5.8,No,No,,,,,,,,,,,,,,,,,,,,,,,,,,,,,,,,,,,,,1715,C1COCCN1C(=O)[C@@H]2CCCCN2c(n3nc(n4)C)nc(c5c34)cccc5,Z1329095102,380.449,1.80362,y,VAE,-55.92,-55.92,75,CC=1N=C2C=3C=CC=CC3N=C(N4CCCCC4C(=O)N5CCOCC5)N2N1,Z1329095102,Z1329095102,90,3,YES,HTS,13.5,Racemic or presumed racemic or meso|None|,Cc1nc2c3ccccc3nc(N4CCCCC4C(=O)N5CCOCC5)n2n1,Z1329095102,15,0.0
CACHE3HI_1715_16,Z1349009539,Cc1c(cnn1C1C=CC(NN=1)=O)C(Nc1cccc(c1)NC(C1CCCCC1)=O)=O,95.0,nsp3_SARS2:MVC039-H10:P222987,NSP3_SARS2,"25 mM HEPES pH 7.0, 20 mM NaCl, 0.05% BSA, 0.05% Tween-20",RT,"30 cmpds, 60 D/A",12.5,200.0,Terbium-cryptate anti-His Mab/XL-665 conjugated streptavidin,0.031,5.0,100.0,2400,4888,2036.7,1897,3388,1786,2486.4,115.3,19,2255.8,112.0,21.9,0.8,0.89,21.6,20.1,22.6,9.3,22.3,9.8,No,No,,,,,,,,,,,,,,,,,,,,,,,,,,,,,,,,,,,,,1715,n1[nH]c(=O)ccc1-n(nc2)c(C)c2C(=O)Nc3cc(ccc3)NC(=O)C4CCCCC4,Z1349009539,420.47,3.03512,y,VAE,-56.57,-56.57,67,CC1=C(C=NN1C=2C=CC(=O)NN2)C(=O)NC=3C=CC=C(NC(=O)C4CCCCC4)C3,Z1349009539,Z1349009539,90,3,YES,HTS,13.5,Achiral|None|,,,16,0.0
CACHE3HI_1715_17,Z1373362411,Cc1cc(C(N2CCCC2c2nc(c[nH]2)c2cccc(c2)OC)=O)nn1c1ccccc1,100.0,nsp3_SARS2:MVC039-H10:P222987,NSP3_SARS2,"25 mM HEPES pH 7.0, 20 mM NaCl, 0.05% BSA, 0.05% Tween-20",RT,"30 cmpds, 60 D/A",12.5,200.0,Terbium-cryptate anti-His Mab/XL-665 conjugated streptavidin,0.031,5.0,100.0,1558,3824,2454.4,1768,4638,2623.3,2416.6,106.2,-1.6,2554.9,116.0,-0.5,0.8,0.89,22.7,22.5,18.9,4.3,17.8,5.8,No,No,,,,,,,,,,,,,,,,,,,,,,,,,,,,,,,,,,,,,1715,c1ccccc1-n(n2)c(C)cc2C(=O)N3CCC[C@H]3c(n4)[nH]cc4-c5cc(OC)ccc5,Z1373362411,427.505,,y,HTS,-69.20974349,-69.20974349,29,COC=1C=CC=C(C1)C2=CNC(=N2)C3CCCN3C(=O)C=4C=C(C)N(N4)C=5C=CC=CC5,Z1373362411,Z1373362411,90,3,YES,HTS,13.5,Racemic or presumed racemic or meso|None|,COc1cccc(c1)c2c[nH]c(n2)C3CCCN3C(=O)c4cc(C)n(n4)c5ccccc5,Z1373362411,17,0.0
CACHE3HI_1715_18,Z146298674,Cc1ccc(cc1)S(Nc1cccc(c1)C(Nc1ccccc1N1CCCC1=O)=O)(=O)=O,90.0,nsp3_SARS2:MVC039-H10:P222987,NSP3_SARS2,"25 mM HEPES pH 7.0, 20 mM NaCl, 0.05% BSA, 0.05% Tween-20",RT,"30 cmpds, 60 D/A",12.5,200.0,Terbium-cryptate anti-His Mab/XL-665 conjugated streptavidin,0.031,5.0,100.0,1460,3631,2487,1705,3894,2283.9,2416.6,106.2,-3,2554.9,116.0,13.1,0.8,0.89,22.7,22.5,18.9,4.3,17.8,5.8,No,No,,,,,,,,,,,,,,,,,,,,,,,,,,,,,,,,,,,,,1715,O=C1CCCN1c(cccc2)c2NC(=O)c3cc(ccc3)NS(=O)(=O)c(cc4)ccc4C,Z146298674,449.523,,y,HTS,-67.56291452,-67.56291452,23,CC=1C=CC(=CC1)S(=O)(=O)NC=2C=CC=C(C2)C(=O)NC=3C=CC=CC3N4CCCC4=O,Z146298674,Z146298674,90,3,YES,HTS,13.5,Achiral|None|,,,18,0.0
CACHE3HI_1715_19,Z1537470667,Cn1c(CN2C(c3ccccc3C(c3cccs3)=N2)=O)nnc1c1ccccc1,100.0,nsp3_SARS2:MVC039-H10:P222987,NSP3_SARS2,"25 mM HEPES pH 7.0, 20 mM NaCl, 0.05% BSA, 0.05% Tween-20",RT,"30 cmpds, 60 D/A",12.5,200.0,Terbium-cryptate anti-His Mab/XL-665 conjugated streptavidin,0.031,5.0,100.0,1544,3723,2411.3,1099,1886,1716.1,2486.4,115.3,3.2,2255.8,112.0,25.2,0.8,0.89,21.6,20.1,22.6,9.3,22.3,9.8,No,No,,,,,,,,,,,,,,,,,,,,,,,,,,,,,,,,,,,,,1715,s1cccc1-c2nn(c(=O)c(c23)cccc3)Cc4n(C)c(nn4)-c5ccccc5,Z1537470667,399.469,,y,HTS,-72.06981325,-72.06981325,87,CN1C(CN2N=C(C3=CC=CS3)C=4C=CC=CC4C2=O)=NN=C1C=5C=CC=CC5,Z1537470667,Z1537470667,90,3,YES,HTS,13.5,Achiral|None|,,,19,0.0
CACHE3HI_1715_2,Z1039077064,C1CCN(CC1)C1CCN(CC1)c1c2cc[nH]c2ncn1,100.0,nsp3_SARS2:MVC039-H10:P222987,NSP3_SARS2,"25 mM HEPES pH 7.0, 20 mM NaCl, 0.05% BSA, 0.05% Tween-20",RT,"30 cmpds, 60 D/A",12.5,200.0,Terbium-cryptate anti-His Mab/XL-665 conjugated streptavidin,0.031,5.0,100.0,1559,3857,2474,1080,2516,2329.6,2486.4,115.3,0.5,2255.8,112.0,-3.4,0.8,0.89,21.6,20.1,22.6,9.3,22.3,9.8,No,No,,,,,,,,,,,,,,,,,,,,,,,,,,,,,,,,,,,,,1715,c1c[nH]c(c12)ncnc2N(CC3)CCC3[NH+]4CCCCC4,Z1039077064,285.391,0.9955,y,QSAR,-34.75,-63.75,14,Cl.C1CCN(CC1)C2CCN(CC2)C=3N=CN=C4NC=CC34,Z1039077064,Z5403095244,90,3,YES,HTS,13.5,Achiral|None|,,,2,0.0
CACHE3HI_1715_20,Z1552217215,C1CC2(C1)CN(CCO2)c1c2cc[nH]c2ncn1,99.0,nsp3_SARS2:MVC039-H10:P222987,NSP3_SARS2,"25 mM HEPES pH 7.0, 20 mM NaCl, 0.05% BSA, 0.05% Tween-20",RT,"30 cmpds, 60 D/A",12.5,200.0,Terbium-cryptate anti-His Mab/XL-665 conjugated streptavidin,0.031,5.0,100.0,1749,4175,2387.1,1124,2472,2199.3,2486.4,115.3,4.2,2255.8,112.0,2.6,0.8,0.89,21.6,20.1,22.6,9.3,22.3,9.8,No,No,,,,,,,,,,,,,,,,,,,,,,,,,,,,,,,,,,,,,1715,C1CCC12CN(CCO2)c3ncnc(c34)[nH]cc4,Z1552217215,244.296,1.7172,y,QSAR,-38.13,-67.13,9,C1CC2(C1)CN(CCO2)C=3N=CN=C4NC=CC34,Z1552217215,Z1552217215,90,3,YES,HTS,13.5,Achiral|None|,,,20,0.0
CACHE3HI_1715_21,Z1649198807,C1CC(c2ccccc2C1)c1nc(C2c3ccccc3C(NN=2)=O)on1,100.0,nsp3_SARS2:MVC039-H10:P222987,NSP3_SARS2,"25 mM HEPES pH 7.0, 20 mM NaCl, 0.05% BSA, 0.05% Tween-20",RT,"30 cmpds, 60 D/A",12.5,200.0,Terbium-cryptate anti-His Mab/XL-665 conjugated streptavidin,0.031,5.0,100.0,5713,4733,828.5,5577,4377,784.8,2416.6,106.2,68.7,2554.9,116.0,73.2,0.8,0.89,22.7,22.5,18.9,4.3,17.8,5.8,Yes,Yes,CACHE3HI_1715_21,962.3,1072.3,1032,348.1,296,242.8,966.7,127.8,0.5,-12.6,-7.8,26.3,20,13.7,0.69,7.6,Did not pass (no DR; did not meet 30% inhibition at 100 uM),,,,,,,,,,,,,,,,,,,1715,c1cccc(c12)c(=O)[nH]nc2-c3nc(no3)[C@@H]4CCCc(c45)cccc5,Z1649198807,344.372,3.4413,y,VAE,-55.45,-55.45,19,O=C1NN=C(C2=NC(=NO2)C3CCCC=4C=CC=CC34)C=5C=CC=CC15,Z1649198807,Z1649198807,90,3,YES,HTS,13.5,Racemic or presumed racemic or meso|None|,O=c1[nH]nc(c2nc(no2)C3CCCc4ccccc34)c5ccccc15,Z1649198807,21,0.0
CACHE3HI_1715_22,Z1656031464,Cc1ccc(cc1F)c1nc(CCC(Nc2ncn(C3CCCCC3)n2)=O)on1,98.0,nsp3_SARS2:MVC039-H10:P222987,NSP3_SARS2,"25 mM HEPES pH 7.0, 20 mM NaCl, 0.05% BSA, 0.05% Tween-20",RT,"30 cmpds, 60 D/A",12.5,200.0,Terbium-cryptate anti-His Mab/XL-665 conjugated streptavidin,0.031,5.0,100.0,3018,4987,1652.4,1846,3023,1637.6,2486.4,115.3,35.2,2255.8,112.0,28.8,0.8,0.89,21.6,20.1,22.6,9.3,22.3,9.8,Yes,No,CACHE3HI_1715_22,1524.5,1808.9,2204,226.4,171.2,129,2321.0,109.0,36,23.2,5.3,5.3,2.8,0.9,0.84,21.3,Passed HTRF,CACHE3HI_1715_22,98,100,927,1477,,0.08,80000.0,0.02,184.3,0.01,-0.53,-0.8,3.5,749.3,24.6,100.0,missed KD cutoff (KD>100 uM),1715,Cc1c(F)cc(cc1)-c(no2)nc2CCC(=O)Nc3ncn(n3)C4CCCCC4,Z1656031464,398.439,3.85212,y,VAE,-52.78,-52.78,63,CC=1C=CC(=CC1F)C2=NOC(CCC(=O)NC=3N=CN(N3)C4CCCCC4)=N2,Z1656031464,Z1656031464,90,3,YES,HTS,13.5,Achiral|None|,,,22,0.0
CACHE3HI_1715_23,Z1723428210,CN1C(Nc2c1cc(cn2)c1cccc(c1)C(NCC(N1CCc2ccccc2C1)=O)=O)=O,95.0,nsp3_SARS2:MVC039-H10:P222987,NSP3_SARS2,"25 mM HEPES pH 7.0, 20 mM NaCl, 0.05% BSA, 0.05% Tween-20",RT,"30 cmpds, 60 D/A",12.5,200.0,Terbium-cryptate anti-His Mab/XL-665 conjugated streptavidin,0.031,5.0,100.0,30393,14248,468.8,36315,15955,439.4,2486.4,115.3,85.1,2255.8,112.0,84.7,0.8,0.89,21.6,20.1,22.6,9.3,22.3,9.8,Yes,Yes,CACHE3HI_1715_23,#DIV/0!,#DIV/0!,396.7,#DIV/0!,#DIV/0!,358.6,922.4,124.9,#VALUE!,#VALUE!,65.9,#VALUE!,#VALUE!,29.3,0.76,7.4,Did not pass; fluorescence interference,,,,,,,,,,,,,,,,,,,1715,c1cccc(c12)CN(CC2)C(=O)CNC(=O)c3cc(ccc3)-c(c4)cnc(c45)[nH]c(=O)n5C,Z1723428210,441.488,2.2433,y,VAE,-65.08,-65.08,16,CN1C(=O)NC=2N=CC(=CC12)C=3C=CC=C(C3)C(=O)NCC(=O)N4CCC=5C=CC=CC5C4,Z1723428210,Z1723428210,90,3,YES,HTS,13.5,Achiral|None|,,,23,0.0
CACHE3HI_1715_24,Z1744185545,C1CN(CC12C(Nc1ccccc12)=O)C(C1C=CC(N(Cc2ccccc2[Cl])C=1)=O)=O,97.0,nsp3_SARS2:MVC039-H10:P222987,NSP3_SARS2,"25 mM HEPES pH 7.0, 20 mM NaCl, 0.05% BSA, 0.05% Tween-20",RT,"30 cmpds, 60 D/A",12.5,200.0,Terbium-cryptate anti-His Mab/XL-665 conjugated streptavidin,0.031,5.0,100.0,1303,2658,2039.9,909,1412,1553.4,2486.4,115.3,18.8,2255.8,112.0,32.8,0.8,0.89,21.6,20.1,22.6,9.3,22.3,9.8,No,Yes,CACHE3HI_1715_24,2155.6,2342.3,2486.5,133.7,135.1,139.6,2327.0,138.7,7.8,-0.7,-7.3,-0.2,-0.2,0,0.83,16.8,Did not pass (no DR; did not meet 30% inhibition at 100 uM),,,,,,,,,,,,,,,,,,,1715,c1cccc(NC2=O)c1[C@@]23CCN(C3)C(=O)c4ccc(=O)n(c4)Cc5c(Cl)cccc5,Z1744185545,433.893,,y,HTS,-65.6599791,-65.6599791,57,ClC=1C=CC=CC1CN2C=C(C=CC2=O)C(=O)N3CCC4(C3)C(=O)NC=5C=CC=CC54,Z1744185545,Z1744185545,90,3,YES,HTS,13.5,Racemic or presumed racemic or meso|None|,Clc1ccccc1Cn2cc(ccc2=O)C(=O)N3CCC4(C3)C(=O)Nc5ccccc54,Z1744185545,24,0.0
CACHE3HI_1715_25,Z1785775778,C1CC(C2CCN(CC2)c2c3cc[nH]c3ncn2)OC1,100.0,nsp3_SARS2:MVC039-H10:P222987,NSP3_SARS2,"25 mM HEPES pH 7.0, 20 mM NaCl, 0.05% BSA, 0.05% Tween-20",RT,"30 cmpds, 60 D/A",12.5,200.0,Terbium-cryptate anti-His Mab/XL-665 conjugated streptavidin,0.031,5.0,100.0,1699,4435,2610.4,1325,1856,1400.8,2486.4,115.3,-5.2,2255.8,112.0,39.9,0.8,0.89,21.6,20.1,22.6,9.3,22.3,9.8,No,Yes,CACHE3HI_1715_25,2324.1,2341.7,2373.5,211.4,218,242.7,2377.1,176.8,2.4,1.6,0.2,1.6,1.9,3,0.79,13.4,Did not pass (no DR; did not meet 30% inhibition at 100 uM),,,,,,,,,,,,,,,,,,,1715,c1c[nH]c(c12)ncnc2N(CC3)CCC3[C@H]4CCCO4,Z1785775778,272.349,2.3533,y,QSAR,-36.83,-65.83,16,C1COC(C1)C2CCN(CC2)C=3N=CN=C4NC=CC34,Z1785775778,Z1785775778,90,3,YES,HTS,13.5,Racemic or presumed racemic or meso|None|,C1COC(C1)C2CCN(CC2)c3ncnc4[nH]ccc34,Z1785775778,25,0.0
CACHE3HI_1715_26,Z1824054670,Cn1ccnc1c1nnc(NCc2cn(Cc3ccccc3)nc2c2ccccc2)o1,100.0,nsp3_SARS2:MVC039-H10:P222987,NSP3_SARS2,"25 mM HEPES pH 7.0, 20 mM NaCl, 0.05% BSA, 0.05% Tween-20",RT,"30 cmpds, 60 D/A",12.5,200.0,Terbium-cryptate anti-His Mab/XL-665 conjugated streptavidin,0.031,5.0,100.0,1785,4358,2441.5,1279,2751,2150.9,2486.4,115.3,1.9,2255.8,112.0,4.9,0.8,0.89,21.6,20.1,22.6,9.3,22.3,9.8,No,No,,,,,,,,,,,,,,,,,,,,,,,,,,,,,,,,,,,,,1715,c1ccccc1Cn(c2)nc(-c3ccccc3)c2CNc(o4)nnc4-c5nccn5C,Z1824054670,411.465,,y,HTS,-67.10959944,-67.10959944,4,CN1C=CN=C1C2=NN=C(NCC3=CN(CC=4C=CC=CC4)N=C3C=5C=CC=CC5)O2,Z1824054670,Z1824054670,90,3,YES,HTS,13.5,Achiral|None|,,,26,0.0
CACHE3HI_1715_27,Z1849443681,C1C[C@@H]2CN(C[C@@]2(C1)c1nc(c2ccccc2)no1)C(c1cccc(c1)n1cncn1)=O,100.0,nsp3_SARS2:MVC039-H10:P222987,NSP3_SARS2,"25 mM HEPES pH 7.0, 20 mM NaCl, 0.05% BSA, 0.05% Tween-20",RT,"30 cmpds, 60 D/A",12.5,200.0,Terbium-cryptate anti-His Mab/XL-665 conjugated streptavidin,0.031,5.0,100.0,1940,4989,2571.6,1241,2835,2284.4,2486.4,115.3,-3.6,2255.8,112.0,-1.3,0.8,0.89,21.6,20.1,22.6,9.3,22.3,9.8,No,No,,,,,,,,,,,,,,,,,,,,,,,,,,,,,,,,,,,,,1715,n1cncn1-c(ccc2)cc2C(=O)N(C3)C[C@@H](CCC4)[C@]34c5nc(no5)-c6ccccc6,Z1849443681,426.477,,y,HTS,-65.55335139,-65.55335139,51,O=C(N1C[C@H]2CCC[C@]2(C1)C3=NC(=NO3)C=4C=CC=CC4)C=5C=CC=C(C5)N6C=NC=N6,Z1849443681,Z1849443681,90,3,YES,HTS,13.5,Single known enantiomer|None|,,,27,0.0
CACHE3HI_1715_28,Z1863652192,Cn1ccnc1N1CCC(CC1)NS(c1ccccc1c1ccccc1)(=O)=O,94.0,nsp3_SARS2:MVC039-H10:P222987,NSP3_SARS2,"25 mM HEPES pH 7.0, 20 mM NaCl, 0.05% BSA, 0.05% Tween-20",RT,"30 cmpds, 60 D/A",12.5,200.0,Terbium-cryptate anti-His Mab/XL-665 conjugated streptavidin,0.031,5.0,100.0,1505,3130,2079.7,1570,3619,2305.1,2416.6,106.2,14.6,2554.9,116.0,12.2,0.8,0.89,22.7,22.5,18.9,4.3,17.8,5.8,No,No,,,,,,,,,,,,,,,,,,,,,,,,,,,,,,,,,,,,,1715,[nH+]1ccn(C)c1N(CC2)CCC2NS(=O)(=O)c(cccc3)c3-c4ccccc4,Z1863652192,396.506,,y,HTS,-65.12486378,-65.12486378,71,Cl.CN1C=CN=C1N2CCC(CC2)NS(=O)(=O)C=3C=CC=CC3C=4C=CC=CC4,Z1863652192,Z8415269618,90,3,YES,HTS,13.5,Achiral|None|,,,28,0.0
CACHE3HI_1715_29,Z19222108,C(C(Nc1cccc(c1)S(N)(=O)=O)=O)Sc1nc(c2ccccc2)c(c2ccccc2)nn1,92.0,nsp3_SARS2:MVC039-H10:P222987,NSP3_SARS2,"25 mM HEPES pH 7.0, 20 mM NaCl, 0.05% BSA, 0.05% Tween-20",RT,"30 cmpds, 60 D/A",12.5,200.0,Terbium-cryptate anti-His Mab/XL-665 conjugated streptavidin,0.031,5.0,100.0,836,2008,2401.9,589,1296,2200.3,2486.4,115.3,3.6,2255.8,112.0,2.6,0.8,0.89,21.6,20.1,22.6,9.3,22.3,9.8,No,No,,,,,,,,,,,,,,,,,,,,,,,,,,,,,,,,,,,,,1715,c1ccc(S(=O)(=O)N)cc1NC(=O)CSc(n2)nnc(-c3ccccc3)c2-c4ccccc4,Z19222108,477.555,,y,HTS,-69.61411249,-69.61411249,64,NS(=O)(=O)C=1C=CC=C(NC(=O)CSC=2N=NC(C=3C=CC=CC3)=C(N2)C=4C=CC=CC4)C1,Z19222108,Z19222108,90,3,YES,HTS,13.5,Achiral|None|,,,29,0.0
CACHE3HI_1715_3,Z1039078436,C1CC(N(CC(N2CCN(CC2)c2c3cc[nH]c3ncn2)=O)C1=O)=O,100.0,nsp3_SARS2:MVC039-H10:P222987,NSP3_SARS2,"25 mM HEPES pH 7.0, 20 mM NaCl, 0.05% BSA, 0.05% Tween-20",RT,"30 cmpds, 60 D/A",12.5,200.0,Terbium-cryptate anti-His Mab/XL-665 conjugated streptavidin,0.031,5.0,100.0,1748,4505,2577.2,1157,2715,2346.6,2486.4,115.3,-3.8,2255.8,112.0,-4.2,0.8,0.89,21.6,20.1,22.6,9.3,22.3,9.8,No,No,,,,,,,,,,,,,,,,,,,,,,,,,,,,,,,,,,,,,1715,O=C1CCC(=O)N1CC(=O)N2CCN(CC2)c3ncnc(c34)[nH]cc4,Z1039078436,342.357,-0.2445,y,QSAR,-38.21,-67.21,7,O=C(CN1C(=O)CCC1=O)N2CCN(CC2)C=3N=CN=C4NC=CC34,Z1039078436,Z1039078436,90,3,YES,HTS,13.5,Achiral|None|,,,3,0.0
CACHE3HI_1715_30,Z1958788098,CCC1CN(CC2(CCOC2)O1)c1c2cc[nH]c2ncn1,100.0,nsp3_SARS2:MVC039-H10:P222987,NSP3_SARS2,"25 mM HEPES pH 7.0, 20 mM NaCl, 0.05% BSA, 0.05% Tween-20",RT,"30 cmpds, 60 D/A",12.5,200.0,Terbium-cryptate anti-His Mab/XL-665 conjugated streptavidin,0.031,5.0,100.0,1858,4676,2516.7,1222,2945,2410,2486.4,115.3,-1.3,2255.8,112.0,-7.2,0.8,0.89,21.6,20.1,22.6,9.3,22.3,9.8,No,No,,,,,,,,,,,,,,,,,,,,,,,,,,,,,,,,,,,,,1715,C1OCC[C@@]12CN(C[C@H](O2)CC)c3ncnc(c34)[nH]cc4,Z1958788098,288.349,1.7322,y,QSAR,-37.35,-66.35,4,CCC1CN(CC2(CCOC2)O1)C=3N=CN=C4NC=CC34,Z1958788098,Z1958788098,90,3,YES,HTS,13.5,Diastereomeric mixture|Unequal mixture of geometric isomers|,CCC1CN(CC2(CCOC2)O1)c3ncnc4[nH]ccc34,Z1958788098,30,0.0
CACHE3HI_1715_31,Z1973818187,CC1CCCCN1C(c1ccc(c(C)c1)NCc1nnc2COCCn12)=O,100.0,nsp3_SARS2:MVC039-H10:P222987,NSP3_SARS2,"25 mM HEPES pH 7.0, 20 mM NaCl, 0.05% BSA, 0.05% Tween-20",RT,"30 cmpds, 60 D/A",12.5,200.0,Terbium-cryptate anti-His Mab/XL-665 conjugated streptavidin,0.031,5.0,100.0,1546,3808,2463.1,1795,4628,2578.3,2416.6,106.2,-2,2554.9,116.0,1.3,0.8,0.89,22.7,22.5,18.9,4.3,17.8,5.8,No,No,,,,,,,,,,,,,,,,,,,,,,,,,,,,,,,,,,,,,1715,C[C@@H]1CCCCN1C(=O)c2cc(C)c(cc2)NCc(nn3)n(c34)CCOC4,Z1973818187,369.466,2.74342,y,VAE,-51.67,-51.67,41,CC1CCCCN1C(=O)C=2C=CC(NCC3=NN=C4COCCN34)=C(C)C2,Z1973818187,Z1973818187,90,3,YES,HTS,13.5,Racemic or presumed racemic or meso|None|,CC1CCCCN1C(=O)c2ccc(NCc3nnc4COCCn34)c(C)c2,Z1973818187,31,0.0
CACHE3HI_1715_32,Z2042311193,CC(N1CCc2ccc(cc2CC1)S(N1CC(C)(C)c2c1cccc2[Cl])(=O)=O)=O,100.0,nsp3_SARS2:MVC039-H10:P222987,NSP3_SARS2,"25 mM HEPES pH 7.0, 20 mM NaCl, 0.05% BSA, 0.05% Tween-20",RT,"30 cmpds, 60 D/A",12.5,200.0,Terbium-cryptate anti-His Mab/XL-665 conjugated streptavidin,0.031,5.0,100.0,1563,3882,2483.7,1854,4995,2694.2,2416.6,106.2,-2.9,2554.9,116.0,-3.4,0.8,0.89,22.7,22.5,18.9,4.3,17.8,5.8,No,No,,,,,,,,,,,,,,,,,,,,,,,,,,,,,,,,,,,,,1715,CC(=O)N(CC1)CCc(c12)ccc(c2)S(=O)(=O)N(CC3(C)C)c(c34)cccc4Cl,Z2042311193,432.964,3.7736,y,VAE,-59.57,-59.57,66,CC(=O)N1CCC=2C=CC(=CC2CC1)S(=O)(=O)N3CC(C)(C)C=4C3=CC=CC4Cl,Z2042311193,Z2042311193,90,3,YES,HTS,13.5,Achiral|None|,,,32,0.0
CACHE3HI_1715_33,Z216567542,COc1cc(c(cc1NC(CN1C(c2ccccc2C(c2ccccc2)=N1)=O)=O)OC)[Cl],95.0,nsp3_SARS2:MVC039-H10:P222987,NSP3_SARS2,"25 mM HEPES pH 7.0, 20 mM NaCl, 0.05% BSA, 0.05% Tween-20",RT,"30 cmpds, 60 D/A",12.5,200.0,Terbium-cryptate anti-His Mab/XL-665 conjugated streptavidin,0.031,5.0,100.0,2175,4789,2201.8,1676,3026,1805.5,2486.4,115.3,12,2255.8,112.0,21,0.8,0.89,21.6,20.1,22.6,9.3,22.3,9.8,No,No,,,,,,,,,,,,,,,,,,,,,,,,,,,,,,,,,,,,,1715,COc(c1)c(Cl)cc(OC)c1NC(=O)Cn(c(=O)c(c23)cccc3)nc2-c4ccccc4,Z216567542,449.893,,y,HTS,-67.0990603,-67.0990603,14,COC=1C=C(NC(=O)CN2N=C(C=3C=CC=CC3)C=4C=CC=CC4C2=O)C(OC)=CC1Cl,Z216567542,Z216567542,90,3,YES,HTS,13.5,Achiral|None|,,,33,0.0
CACHE3HI_1715_34,Z2219575755,C1CC1c1c(C(N2CCN(CC2)c2c(C#N)cnc3ccccc23)=O)nco1,84.0,nsp3_SARS2:MVC039-H10:P222987,NSP3_SARS2,"25 mM HEPES pH 7.0, 20 mM NaCl, 0.05% BSA, 0.05% Tween-20",RT,"30 cmpds, 60 D/A",12.5,200.0,Terbium-cryptate anti-His Mab/XL-665 conjugated streptavidin,0.031,5.0,100.0,945,1972,2086.8,1076,2445,2272.3,2416.6,106.2,14.3,2554.9,116.0,13.5,0.8,0.89,22.7,22.5,18.9,4.3,17.8,5.8,No,No,,,,,,,,,,,,,,,,,,,,,,,,,,,,,,,,,,,,,1715,c1cccc(c12)ncc(C#N)c2N(CC3)CCN3C(=O)c4c(ocn4)C5CC5,Z2219575755,373.413,2.93428,y,VAE,-55.44,-55.44,28,O=C(N1CCN(CC1)C=2C(C#N)=CN=C3C=CC=CC23)C=4N=COC4C5CC5,Z2219575755,Z2219575755,90,3,YES,HTS,13.5,Achiral|None|,,,34,0.0
CACHE3HI_1715_35,Z222990770,C1CCc2nc3cc(ccc3n2CC1)NC(C1CC(Nc2ccccc12)=O)=O,91.0,nsp3_SARS2:MVC039-H10:P222987,NSP3_SARS2,"25 mM HEPES pH 7.0, 20 mM NaCl, 0.05% BSA, 0.05% Tween-20",RT,"30 cmpds, 60 D/A",12.5,200.0,Terbium-cryptate anti-His Mab/XL-665 conjugated streptavidin,0.031,5.0,100.0,1679,4279,2548.5,1148,2680,2334.5,2486.4,115.3,-2.6,2255.8,112.0,-3.7,0.8,0.89,21.6,20.1,22.6,9.3,22.3,9.8,No,No,,,,,,,,,,,,,,,,,,,,,,,,,,,,,,,,,,,,,1715,c1cccc(c12)NC(=O)C[C@H]2C(=O)Nc(c3)ccc(c34)n5c(n4)CCCCC5,Z222990770,374.441,3.8272,y,VAE,-57.48,-57.48,22,O=C(NC=1C=CC=2N3CCCCCC3=NC2C1)C4CC(=O)NC=5C=CC=CC45,Z222990770,Z222990770,90,3,YES,HTS,13.5,Racemic or presumed racemic or meso|None|,O=C(Nc1ccc2n3CCCCCc3nc2c1)C4CC(=O)Nc5ccccc45,Z222990770,35,0.0
CACHE3HI_1715_36,Z241411472,C(c1ccc(cc1)C(N1CCOCC1)=O)NC(c1ccccc1C(c1ccccc1)=O)=O,92.0,nsp3_SARS2:MVC039-H10:P222987,NSP3_SARS2,"25 mM HEPES pH 7.0, 20 mM NaCl, 0.05% BSA, 0.05% Tween-20",RT,"30 cmpds, 60 D/A",12.5,200.0,Terbium-cryptate anti-His Mab/XL-665 conjugated streptavidin,0.031,5.0,100.0,1910,4959,2596.3,1302,2962,2275,2486.4,115.3,-4.6,2255.8,112.0,-0.9,0.8,0.89,21.6,20.1,22.6,9.3,22.3,9.8,No,No,,,,,,,,,,,,,,,,,,,,,,,,,,,,,,,,,,,,,1715,c1ccccc1C(=O)c2c(cccc2)C(=O)NCc(cc3)ccc3C(=O)N4CCOCC4,Z241411472,428.487,,y,HTS,-68.53596238,-68.53596238,54,O=C(NCC=1C=CC(=CC1)C(=O)N2CCOCC2)C=3C=CC=CC3C(=O)C=4C=CC=CC4,Z241411472,Z241411472,90,3,YES,HTS,13.5,Achiral|None|,,,36,0.0
CACHE3HI_1715_37,Z24593655,CC(C1NC(c2ccccc2N=1)=O)Sc1nnc(c2ccoc2C)o1,92.0,nsp3_SARS2:MVC039-H10:P222987,NSP3_SARS2,"25 mM HEPES pH 7.0, 20 mM NaCl, 0.05% BSA, 0.05% Tween-20",RT,"30 cmpds, 60 D/A",12.5,200.0,Terbium-cryptate anti-His Mab/XL-665 conjugated streptavidin,0.031,5.0,100.0,19591,15743,803.6,17633,13111,743.5,2486.4,115.3,71,2255.8,112.0,70.5,0.8,0.89,21.6,20.1,22.6,9.3,22.3,9.8,Yes,Yes,CACHE3HI_1715_37,755.5,1641.3,2225,590.3,341.8,234,2377.1,176.8,73.7,33.4,6.9,18.8,7.5,2.6,0.79,13.4,Passed HTRF,CACHE3HI_1715_37,100,100,768,1102,,2.53e-05,25.3,3.4,2.3,11.5,-0.23,-3.13,0.02,6.6,34.4,100.0,missed %binding cutoff,1715,c1cccc(c12)nc([nH]c2=O)[C@H](C)Sc(o3)nnc3-c4c(C)occ4,Z24593655,354.383,3.72782,y,VAE,-56.66,-56.66,73,CC(SC1=NN=C(O1)C=2C=COC2C)C3=NC=4C=CC=CC4C(=O)N3,Z24593655,Z24593655,90,3,YES,HTS,13.5,Racemic or presumed racemic or meso|None|,CC(Sc1nnc(o1)c2ccoc2C)c3nc4ccccc4c(=O)[nH]3,Z24593655,37,0.0
CACHE3HI_1715_38,Z25252856,Cc1ccc(C)c(c1)OCc1nnc(o1)SCC(N1c2ccccc2NC(C1(C)C)=O)=O,91.0,nsp3_SARS2:MVC039-H10:P222987,NSP3_SARS2,"25 mM HEPES pH 7.0, 20 mM NaCl, 0.05% BSA, 0.05% Tween-20",RT,"30 cmpds, 60 D/A",12.5,200.0,Terbium-cryptate anti-His Mab/XL-665 conjugated streptavidin,0.031,5.0,100.0,1768,4334,2451.4,1156,2625,2270.8,2486.4,115.3,1.5,2255.8,112.0,-0.7,0.8,0.89,21.6,20.1,22.6,9.3,22.3,9.8,No,No,,,,,,,,,,,,,,,,,,,,,,,,,,,,,,,,,,,,,1715,c1cccc(c12)NC(=O)C(C)(C)N2C(=O)CSc(o3)nnc3COc(c4C)cc(C)cc4,Z25252856,452.527,,y,HTS,-66.90801559,-66.90801559,86,CC=1C=CC(C)=C(OCC2=NN=C(SCC(=O)N3C=4C=CC=CC4NC(=O)C3(C)C)O2)C1,Z25252856,Z25252856,90,3,YES,HTS,13.5,Achiral|None|,,,38,0.0
CACHE3HI_1715_39,Z25262157,C1c2ccccc2c2cc(ccc12)C(COC(c1ccc(CO)cc1)=O)=O,96.0,nsp3_SARS2:MVC039-H10:P222987,NSP3_SARS2,"25 mM HEPES pH 7.0, 20 mM NaCl, 0.05% BSA, 0.05% Tween-20",RT,"30 cmpds, 60 D/A",12.5,200.0,Terbium-cryptate anti-His Mab/XL-665 conjugated streptavidin,0.031,5.0,100.0,80370,37435,465.8,72499,32189,444,2486.4,115.3,85.2,2255.8,112.0,84.5,0.8,0.89,21.6,20.1,22.6,9.3,22.3,9.8,Yes,Yes,CACHE3HI_1715_39,491.2,520,662.8,306.6,254.2,207.9,863.0,131.4,50.8,46.9,27.4,23.9,16.8,10.5,0.71,6.6,Did not pass HTRF; fluorescence interference,,,,,,,,,,,,,,,,,,,1715,c1cc(CO)ccc1C(=O)OCC(=O)c(c2)ccc3Cc(c4c23)cccc4,Z25262157,358.393,3.7898,y,VAE,-54.21,-54.21,32,OCC=1C=CC(=CC1)C(=O)OCC(=O)C=2C=CC=3CC=4C=CC=CC4C3C2,Z25262157,Z25262157,90,3,YES,HTS,13.5,Achiral|None|,,,39,0.0
CACHE3HI_1715_4,Z1039080022,Cc1nc(C2CCN(CC2)c2c3cc[nH]c3ncn2)on1,100.0,nsp3_SARS2:MVC039-H10:P222987,NSP3_SARS2,"25 mM HEPES pH 7.0, 20 mM NaCl, 0.05% BSA, 0.05% Tween-20",RT,"30 cmpds, 60 D/A",12.5,200.0,Terbium-cryptate anti-His Mab/XL-665 conjugated streptavidin,0.031,5.0,100.0,1710,3961,2316.4,1173,1971,1680.3,2486.4,115.3,7.2,2255.8,112.0,26.8,0.8,0.89,21.6,20.1,22.6,9.3,22.3,9.8,No,No,,,,,,,,,,,,,,,,,,,,,,,,,,,,,,,,,,,,,1715,Cc1nc(on1)C2CCN(CC2)c3ncnc(c34)[nH]cc4,Z1039080022,284.32,2.03332,y,QSAR,-39.15,-68.15,15,CC1=NOC(=N1)C2CCN(CC2)C=3N=CN=C4NC=CC34,Z1039080022,Z1039080022,90,3,YES,HTS,13.5,Achiral|None|,,,4,0.0
CACHE3HI_1715_40,Z26315291,COc1ccccc1NC(c1cc2ccccc2cc1OCC(Nc1ccc(cc1)C(N)=O)=O)=O,92.0,nsp3_SARS2:MVC039-H10:P222987,NSP3_SARS2,"25 mM HEPES pH 7.0, 20 mM NaCl, 0.05% BSA, 0.05% Tween-20",RT,"30 cmpds, 60 D/A",12.5,200.0,Terbium-cryptate anti-His Mab/XL-665 conjugated streptavidin,0.031,5.0,100.0,5795,6275,1082.8,4400,4282,973.2,2486.4,115.3,59.2,2255.8,112.0,59.8,0.8,0.89,21.6,20.1,22.6,9.3,22.3,9.8,Yes,Yes,CACHE3HI_1715_40,1042.5,1265.3,1557.9,406.8,341,256.8,2321.0,109.0,57.8,47.7,34.5,13.5,10.5,6.7,0.84,21.3,Passed HTRF,CACHE3HI_1715_40,93,100,1771,1505,,4.9,4900000.0,0.03,293034.1,0.03,-0.4,-1.8,0.4,621513.7,47.1,100.0,missed KD cutoff (KD>100 uM),1715,NC(=O)c1ccc(cc1)NC(=O)COc(cc(c23)cccc3)c(c2)C(=O)Nc4c(OC)cccc4,Z26315291,469.496,,y,HTS,-66.54503071,-66.54503071,26,COC=1C=CC=CC1NC(=O)C=2C=C3C=CC=CC3=CC2OCC(=O)NC=4C=CC(=CC4)C(=O)N,Z26315291,Z26315291,90,3,YES,HTS,13.5,Achiral|None|,,,40,0.0
CACHE3HI_1715_41,Z27271214,Cc1cccc(c1C)NC(CNC(c1cn(Cc2ccccc2)nc1c1cccnc1)=O)=O,100.0,nsp3_SARS2:MVC039-H10:P222987,NSP3_SARS2,"25 mM HEPES pH 7.0, 20 mM NaCl, 0.05% BSA, 0.05% Tween-20",RT,"30 cmpds, 60 D/A",12.5,200.0,Terbium-cryptate anti-His Mab/XL-665 conjugated streptavidin,0.031,5.0,100.0,1811,4466,2466,1196,2786,2329.4,2486.4,115.3,0.9,2255.8,112.0,-3.4,0.8,0.89,21.6,20.1,22.6,9.3,22.3,9.8,No,No,,,,,,,,,,,,,,,,,,,,,,,,,,,,,,,,,,,,,1715,Cc1c(C)cccc1NC(=O)CNC(=O)c2c(-c3cccnc3)nn(c2)Cc4ccccc4,Z27271214,439.516,,y,HTS,-67.47492134,-67.47492134,88,CC=1C=CC=C(NC(=O)CNC(=O)C2=CN(CC=3C=CC=CC3)N=C2C=4C=CC=NC4)C1C,Z27271214,Z27271214,90,3,YES,HTS,13.5,Achiral|None|,,,41,0.0
CACHE3HI_1715_42,Z275022116,C1CN(CCN1C(c1cccc(c1)NS(c1cccc(c1)F)(=O)=O)=O)c1ccccc1,97.0,nsp3_SARS2:MVC039-H10:P222987,NSP3_SARS2,"25 mM HEPES pH 7.0, 20 mM NaCl, 0.05% BSA, 0.05% Tween-20",RT,"30 cmpds, 60 D/A",12.5,200.0,Terbium-cryptate anti-His Mab/XL-665 conjugated streptavidin,0.031,5.0,100.0,1910,4959,2596.3,1277,2975,2329.7,2486.4,115.3,-4.6,2255.8,112.0,-3.4,0.8,0.89,21.6,20.1,22.6,9.3,22.3,9.8,No,No,,,,,,,,,,,,,,,,,,,,,,,,,,,,,,,,,,,,,1715,c1ccc(cc1F)S(=O)(=O)Nc(ccc2)cc2C(=O)N3CCN(CC3)c4ccccc4,Z275022116,439.503,,y,HTS,-67.08222872,-67.08222872,43,FC=1C=CC=C(C1)S(=O)(=O)NC=2C=CC=C(C2)C(=O)N3CCN(CC3)C=4C=CC=CC4,Z275022116,Z275022116,90,3,YES,HTS,13.5,Achiral|None|,,,42,0.0
CACHE3HI_1715_43,Z283901326,Cc1ccc(cc1)NC(CN(C)C(c1ccc(cc1)c1nnc(c2cccc(C)c2)o1)=O)=O,100.0,nsp3_SARS2:MVC039-H10:P222987,NSP3_SARS2,"25 mM HEPES pH 7.0, 20 mM NaCl, 0.05% BSA, 0.05% Tween-20",RT,"30 cmpds, 60 D/A",12.5,200.0,Terbium-cryptate anti-His Mab/XL-665 conjugated streptavidin,0.031,5.0,100.0,2253,3961,1758.1,2614,4640,1775.1,2416.6,106.2,28.5,2554.9,116.0,33.5,0.8,0.89,22.7,22.5,18.9,4.3,17.8,5.8,No,Yes,CACHE3HI_1715_43,1744.5,2019,2293.2,184.8,165.4,121.7,2421.3,102.7,29.2,17.4,5.5,3.5,2.7,0.8,0.87,23.6,Passed HTRF,CACHE3HI_1715_43,65,65,2989,3282,,0.08,80000.0,0.03,404.0,0.02,-0.42,-6.2,0.0,1022.2,39.5,30.0,missed KD cutoff (KD>100 uM),1715,Cc1ccc(cc1)NC(=O)CN(C)C(=O)c2ccc(cc2)-c(o3)nnc3-c(cc4C)ccc4,Z283901326,440.501,,y,HTS,-65.68366008,-65.68366008,5,CN(CC(=O)NC=1C=CC(C)=CC1)C(=O)C=2C=CC(=CC2)C3=NN=C(O3)C=4C=CC=C(C)C4,Z283901326,Z283901326,90,3,YES,HTS,13.5,Achiral|None|,,,43,0.0
CACHE3HI_1715_44,Z28945856,C1CC(c2ccc3c(c2)OCCO3)N(C1)C(C1c2ccccc2C(N(c2ccccc2)N=1)=O)=O,100.0,nsp3_SARS2:MVC039-H10:P222987,NSP3_SARS2,"25 mM HEPES pH 7.0, 20 mM NaCl, 0.05% BSA, 0.05% Tween-20",RT,"30 cmpds, 60 D/A",12.5,200.0,Terbium-cryptate anti-His Mab/XL-665 conjugated streptavidin,0.031,5.0,100.0,1780,4476,2514.6,1156,2777,2402.2,2486.4,115.3,-1.2,2255.8,112.0,-6.8,0.8,0.89,21.6,20.1,22.6,9.3,22.3,9.8,No,No,,,,,,,,,,,,,,,,,,,,,,,,,,,,,,,,,,,,,1715,c1cccc(c12)c(=O)n(-c3ccccc3)nc2C(=O)N4CCC[C@H]4c(c5)ccc(c56)OCCO6,Z28945856,453.496,,y,HTS,-67.5273996,-67.5273996,69,O=C(N1CCCC1C=2C=CC=3OCCOC3C2)C4=NN(C=5C=CC=CC5)C(=O)C=6C=CC=CC46,Z28945856,Z28945856,90,3,YES,HTS,13.5,Racemic or presumed racemic or meso|None|,O=C(N1CCCC1c2ccc3OCCOc3c2)c4nn(c5ccccc5)c(=O)c6ccccc46,Z28945856,44,0.0
CACHE3HI_1715_45,Z29031675,CS(c1ccc(c(c1)NC(C(c1ccccc1)c1ccccc1)=O)[Cl])(=O)=O,100.0,nsp3_SARS2:MVC039-H10:P222987,NSP3_SARS2,"25 mM HEPES pH 7.0, 20 mM NaCl, 0.05% BSA, 0.05% Tween-20",RT,"30 cmpds, 60 D/A",12.5,200.0,Terbium-cryptate anti-His Mab/XL-665 conjugated streptavidin,0.031,5.0,100.0,3627,4788,1320.1,2807,2982,1062.3,2486.4,115.3,49.2,2255.8,112.0,55.7,0.8,0.89,21.6,20.1,22.6,9.3,22.3,9.8,Yes,Yes,CACHE3HI_1715_45,1299.5,1753,2059.5,215.1,168.3,143.9,2321.0,109.0,46.2,25.7,11.8,4.8,2.7,1.6,0.84,21.3,Passed HTRF,CACHE3HI_1715_45,68,73,11027,7835,Red flag,2.27e-08,0.02,0.1,4.8,0.1,-4.99,-0.11,0.1,10.2,47.3,100.0,missed %binding cutoff,1715,c1ccccc1C(c2ccccc2)C(=O)Nc3c(Cl)ccc(c3)S(=O)(=O)C,Z29031675,399.891,,y,HTS,-65.46614185,-65.46614185,52,CS(=O)(=O)C=1C=CC(Cl)=C(NC(=O)C(C=2C=CC=CC2)C=3C=CC=CC3)C1,Z29031675,Z29031675,90,3,YES,HTS,13.5,Achiral|None|,,,45,0.0
CACHE3HI_1715_46,Z2970659785,CCc1c[nH]c2c1c(ncn2)N1CCN(CC1)CCS(C)(=O)=O,99.0,nsp3_SARS2:MVC039-H10:P222987,NSP3_SARS2,"25 mM HEPES pH 7.0, 20 mM NaCl, 0.05% BSA, 0.05% Tween-20",RT,"30 cmpds, 60 D/A",12.5,200.0,Terbium-cryptate anti-His Mab/XL-665 conjugated streptavidin,0.031,5.0,100.0,1611,4005,2486,1105,2434,2202.7,2486.4,115.3,0,2255.8,112.0,2.5,0.8,0.89,21.6,20.1,22.6,9.3,22.3,9.8,No,No,,,,,,,,,,,,,,,,,,,,,,,,,,,,,,,,,,,,,1715,CS(=O)(=O)CCN1CCN(CC1)c2ncnc(c23)[nH]cc3CC,Z2970659785,337.439,0.6869,y,QSAR,-36.55,-65.55,3,CCC1=CNC=2N=CN=C(N3CCN(CCS(=O)(=O)C)CC3)C12,Z2970659785,Z2970659785,90,3,YES,HTS,13.5,Achiral|None|,,,46,0.0
CACHE3HI_1715_47,Z2974823180,C1[C@@H](C[C@@]1(CNc1c2cc[nH]c2ncn1)c1ccccc1)O,99.0,nsp3_SARS2:MVC039-H10:P222987,NSP3_SARS2,"25 mM HEPES pH 7.0, 20 mM NaCl, 0.05% BSA, 0.05% Tween-20",RT,"30 cmpds, 60 D/A",12.5,200.0,Terbium-cryptate anti-His Mab/XL-665 conjugated streptavidin,0.031,5.0,100.0,1788,4199,2348.4,1256,2618,2084.4,2486.4,115.3,5.8,2255.8,112.0,8,0.8,0.89,21.6,20.1,22.6,9.3,22.3,9.8,No,No,,,,,,,,,,,,,,,,,,,,,,,,,,,,,,,,,,,,,1715,c1ccccc1[C@]2(C[C@@H](C2)O)CNc3ncnc(c34)[nH]cc4,Z2974823180,294.355,2.4625,y,QSAR,-50.57,-79.57,5,O[C@H]1C[C@@](CNC=2N=CN=C3NC=CC23)(C1)C=4C=CC=CC4,Z2974823180,Z2974823180,90,3,YES,HTS,13.5,Achiral|Meso|,,,47,0.0
CACHE3HI_1715_48,Z30269462,C(C1c2ccccc2C(NN=1)=O)C(Nc1ccc(cc1)c1nc2ccccc2[nH]1)=O,90.0,nsp3_SARS2:MVC039-H10:P222987,NSP3_SARS2,"25 mM HEPES pH 7.0, 20 mM NaCl, 0.05% BSA, 0.05% Tween-20",RT,"30 cmpds, 60 D/A",12.5,200.0,Terbium-cryptate anti-His Mab/XL-665 conjugated streptavidin,0.031,5.0,100.0,2821,1714,607.6,2399,1786,744.5,2416.6,106.2,78.3,2554.9,116.0,74.8,0.8,0.89,22.7,22.5,18.9,4.3,17.8,5.8,Yes,Yes,CACHE3HI_1715_48,320.6,357.1,478.7,302.2,293.4,245.7,910.6,135.5,76.1,71.4,55.7,21.5,20.4,14.2,0.73,6.7,fluorescence inteference,,,,,,,,,,,,,,,,,,,1715,c1cccc(c12)c(=O)[nH]nc2CC(=O)Nc(cc3)ccc3-c(n4)[nH]c(c45)cccc5,Z30269462,395.42,3.6476,y,VAE,-51.46,-51.46,0,O=C(CC1=NNC(=O)C=2C=CC=CC12)NC=3C=CC(=CC3)C4=NC=5C=CC=CC5N4,Z30269462,Z30269462,90,3,YES,HTS,13.5,Achiral|None|,,,48,0.0
CACHE3HI_1715_49,Z3077896328,CCOc1cccnc1N1CCN(CC1)c1c2cc[nH]c2ncn1,100.0,nsp3_SARS2:MVC039-H10:P222987,NSP3_SARS2,"25 mM HEPES pH 7.0, 20 mM NaCl, 0.05% BSA, 0.05% Tween-20",RT,"30 cmpds, 60 D/A",12.5,200.0,Terbium-cryptate anti-His Mab/XL-665 conjugated streptavidin,0.031,5.0,100.0,1433,3674,2563.9,993,2385,2401.8,2486.4,115.3,-3.3,2255.8,112.0,-6.8,0.8,0.89,21.6,20.1,22.6,9.3,22.3,9.8,No,No,,,,,,,,,,,,,,,,,,,,,,,,,,,,,,,,,,,,,1715,CCOc1c(nccc1)N(CC2)CCN2c3ncnc(c34)[nH]cc4,Z3077896328,324.385,2.0782,y,QSAR,-38.49,-67.49,2,CCOC=1C=CC=NC1N2CCN(CC2)C=3N=CN=C4NC=CC34,Z3077896328,Z3077896328,90,3,YES,HTS,13.5,Achiral|None|,,,49,0.0
CACHE3HI_1715_5,Z1095079336,CC(C)c1ccc(C)cc1OCC(Nc1cccc(c1)C(N1CCCC(C1)O)=O)=O,100.0,nsp3_SARS2:MVC039-H10:P222987,NSP3_SARS2,"25 mM HEPES pH 7.0, 20 mM NaCl, 0.05% BSA, 0.05% Tween-20",RT,"30 cmpds, 60 D/A",12.5,200.0,Terbium-cryptate anti-His Mab/XL-665 conjugated streptavidin,0.031,5.0,100.0,1877,4932,2627.6,1252,2873,2294.7,2486.4,115.3,-6,2255.8,112.0,-1.8,0.8,0.89,21.6,20.1,22.6,9.3,22.3,9.8,No,No,,,,,,,,,,,,,,,,,,,,,,,,,,,,,,,,,,,,,1715,c1cc(C)cc(c1C(C)C)OCC(=O)Nc(ccc2)cc2C(=O)N(C3)CCC[C@@H]3O,Z1095079336,410.512,,y,HTS,-65.28121323,-65.28121323,18,CC(C)C=1C=CC(C)=CC1OCC(=O)NC=2C=CC=C(C2)C(=O)N3CCCC(O)C3,Z1095079336,Z1095079336,90,3,YES,HTS,13.5,Racemic or presumed racemic or meso|None|,CC(C)c1ccc(C)cc1OCC(=O)Nc2cccc(c2)C(=O)N3CCCC(O)C3,Z1095079336,5,0.0
CACHE3HI_1715_50,Z3077928719,C1CN(CCC1c1ncccn1)c1c2cc[nH]c2ncn1,97.0,nsp3_SARS2:MVC039-H10:P222987,NSP3_SARS2,"25 mM HEPES pH 7.0, 20 mM NaCl, 0.05% BSA, 0.05% Tween-20",RT,"30 cmpds, 60 D/A",12.5,200.0,Terbium-cryptate anti-His Mab/XL-665 conjugated streptavidin,0.031,5.0,100.0,1714,4154,2423.6,1108,2516,2270.8,2486.4,115.3,2.6,2255.8,112.0,-0.7,0.8,0.89,21.6,20.1,22.6,9.3,22.3,9.8,No,No,,,,,,,,,,,,,,,,,,,,,,,,,,,,,,,,,,,,,1715,c1c[nH]c(c12)ncnc2N(CC3)CCC3c4ncccn4,Z3077928719,280.332,2.1319,y,QSAR,-39.14,-68.14,6,C1CN(CCC1C=2N=CC=CN2)C=3N=CN=C4NC=CC34,Z3077928719,Z3077928719,90,3,YES,HTS,13.5,Achiral|None|,,,50,0.0
CACHE3HI_1715_51,Z32295354,Cc1ccc(cc1NC(C1c2ccccc2C(N(C)N=1)=O)=O)S(Nc1cccc(c1)[Cl])(=O)=O,88.0,nsp3_SARS2:MVC039-H10:P222987,NSP3_SARS2,"25 mM HEPES pH 7.0, 20 mM NaCl, 0.05% BSA, 0.05% Tween-20",RT,"30 cmpds, 60 D/A",12.5,200.0,Terbium-cryptate anti-His Mab/XL-665 conjugated streptavidin,0.031,5.0,100.0,5433,5187,954.7,6089,5945,976.4,2416.6,106.2,63.3,2554.9,116.0,65.5,0.8,0.89,22.7,22.5,18.9,4.3,17.8,5.8,Yes,Yes,CACHE3HI_1715_51,588.5,652,737.2,299.9,262.4,238,966.7,127.8,45.1,37.5,27.4,20.5,16,13.1,0.69,7.6,fluorescence interference,,,,,,,,,,,,,,,,,,,1715,c1cccc(c12)c(=O)n(C)nc2C(=O)Nc(c3C)cc(cc3)S(=O)(=O)Nc4cc(Cl)ccc4,Z32295354,482.94,,y,HTS,-70.83430218,-70.83430218,78,CC=1C=CC(=CC1NC(=O)C2=NN(C)C(=O)C=3C=CC=CC23)S(=O)(=O)NC=4C=CC=C(Cl)C4,Z32295354,Z32295354,90,3,YES,HTS,13.5,Achiral|None|,,,51,0.0
CACHE3HI_1715_52,Z32391941,C(C(c1ccccc1)NC(c1ccccc1[Cl])=O)C(N1CCN(CC1)c1ccccc1O)=O,93.0,nsp3_SARS2:MVC039-H10:P222987,NSP3_SARS2,"25 mM HEPES pH 7.0, 20 mM NaCl, 0.05% BSA, 0.05% Tween-20",RT,"30 cmpds, 60 D/A",12.5,200.0,Terbium-cryptate anti-His Mab/XL-665 conjugated streptavidin,0.031,5.0,100.0,1438,1830,1272.6,1032,1165,1128.9,2486.4,115.3,51.2,2255.8,112.0,52.6,0.8,0.89,21.6,20.1,22.6,9.3,22.3,9.8,Yes,Yes,CACHE3HI_1715_52,1280.1,1853.1,2310.1,123.7,117.9,121.4,2327.0,138.7,47.8,21.7,0.8,-0.7,-0.9,-0.8,0.83,16.8,Passed HTRF,CACHE3HI_1715_52,100,100,1055,1470,,0.00734,7344.0,1.0,8.6,0.1,-9.2,-4.8,43.89,20.4,42.2,100.0,missed KD cutoff (KD>100 uM),1715,c1cccc(O)c1N(CC2)CCN2C(=O)C[C@@H](c3ccccc3)NC(=O)c4c(Cl)cccc4,Z32391941,463.963,,y,HTS,-65.93208023,-65.93208023,85,OC=1C=CC=CC1N2CCN(CC2)C(=O)CC(NC(=O)C=3C=CC=CC3Cl)C=4C=CC=CC4,Z32391941,Z32391941,90,3,YES,HTS,13.5,Racemic or presumed racemic or meso|None|,Oc1ccccc1N2CCN(CC2)C(=O)CC(NC(=O)c3ccccc3Cl)c4ccccc4,Z1095079336,52,0.0
CACHE3HI_1715_53,Z32445053,C(CNC(c1cccc(c1)NS(c1ccc2c(c1)OCCO2)(=O)=O)=O)c1ccccn1,99.0,nsp3_SARS2:MVC039-H10:P222987,NSP3_SARS2,"25 mM HEPES pH 7.0, 20 mM NaCl, 0.05% BSA, 0.05% Tween-20",RT,"30 cmpds, 60 D/A",12.5,200.0,Terbium-cryptate anti-His Mab/XL-665 conjugated streptavidin,0.031,5.0,100.0,1732,4528,2614.3,1189,2738,2302.8,2486.4,115.3,-5.4,2255.8,112.0,-2.2,0.8,0.89,21.6,20.1,22.6,9.3,22.3,9.8,No,No,,,,,,,,,,,,,,,,,,,,,,,,,,,,,,,,,,,,,1715,n1ccccc1CCNC(=O)c2cc(ccc2)NS(=O)(=O)c(c3)ccc(c34)OCCO4,Z32445053,439.485,,y,HTS,-70.22370954,-70.22370954,20,O=C(NCCC=1C=CC=CN1)C=2C=CC=C(NS(=O)(=O)C=3C=CC=4OCCOC4C3)C2,Z32445053,Z32445053,90,3,YES,HTS,13.5,Achiral|None|,,,53,0.0
CACHE3HI_1715_54,Z333715946,Cc1ccc(cc1F)S(Nc1cccc(c1)C(NCc1ccccc1CN1CCCC1=O)=O)(=O)=O,96.0,nsp3_SARS2:MVC039-H10:P222987,NSP3_SARS2,"25 mM HEPES pH 7.0, 20 mM NaCl, 0.05% BSA, 0.05% Tween-20",RT,"30 cmpds, 60 D/A",12.5,200.0,Terbium-cryptate anti-His Mab/XL-665 conjugated streptavidin,0.031,5.0,100.0,1834,4883,2662.5,1190,2972,2497.5,2486.4,115.3,-7.4,2255.8,112.0,-11.3,0.8,0.89,21.6,20.1,22.6,9.3,22.3,9.8,No,No,,,,,,,,,,,,,,,,,,,,,,,,,,,,,,,,,,,,,1715,Cc1c(F)cc(cc1)S(=O)(=O)Nc(ccc2)cc2C(=O)NCc3c(cccc3)CN4CCCC4=O,Z333715946,495.567,,y,HTS,-67.72169799,-67.72169799,35,CC=1C=CC(=CC1F)S(=O)(=O)NC=2C=CC=C(C2)C(=O)NCC=3C=CC=CC3CN4CCCC4=O,Z333715946,Z333715946,90,3,YES,HTS,13.5,Achiral|None|,,,54,0.0
CACHE3HI_1715_55,Z335947626,Cc1ccc(C(N)=O)c(c1)OCc1nnc(c2c(c3ccccc3)noc2C)o1,96.0,nsp3_SARS2:MVC039-H10:P222987,NSP3_SARS2,"25 mM HEPES pH 7.0, 20 mM NaCl, 0.05% BSA, 0.05% Tween-20",RT,"30 cmpds, 60 D/A",12.5,200.0,Terbium-cryptate anti-His Mab/XL-665 conjugated streptavidin,0.031,5.0,100.0,3655,4602,1259.1,2823,4638,1642.9,2416.6,106.2,50.1,2554.9,116.0,38.8,0.8,0.89,22.7,22.5,18.9,4.3,17.8,5.8,Yes,Yes,CACHE3HI_1715_55,1305.5,2143.7,2294.2,262.9,139.7,105.7,2421.3,102.7,48.1,12,5.5,6.9,1.6,0.1,0.87,23.6,Passed HTRF,CACHE3HI_1715_55,83,100,1193,432,be wary,1.4e-07,0.14,0.33,1.6,0.54,-1.46,-0.47,0.4,7.7,21.4,100.0,missed %binding cutoff,1715,c1cc(C)cc(c1C(=O)N)OCc2nnc(o2)-c3c(C)onc3-c4ccccc4,Z335947626,390.398,3.68634,y,VAE,-57.73,-57.73,42,CC=1ON=C(C1C2=NN=C(COC=3C=C(C)C=CC3C(=O)N)O2)C=4C=CC=CC4,Z335947626,Z335947626,90,3,YES,HTS,13.5,Achiral|None|,,,55,0.0
CACHE3HI_1715_56,Z358221038,Cc1cc(C)n(c2ccc(nn2)SCC(N2CCN(CC2)c2c(C#N)nc(c3ccco3)o2)=O)n1,100.0,nsp3_SARS2:MVC039-H10:P222987,NSP3_SARS2,"25 mM HEPES pH 7.0, 20 mM NaCl, 0.05% BSA, 0.05% Tween-20",RT,"30 cmpds, 60 D/A",12.5,200.0,Terbium-cryptate anti-His Mab/XL-665 conjugated streptavidin,0.031,5.0,100.0,4532,4506,994.3,11776,6240,529.9,2486.4,115.3,62.9,2255.8,112.0,80.5,0.8,0.89,21.6,20.1,22.6,9.3,22.3,9.8,Yes,Yes,CACHE3HI_1715_56,688.1,753.2,950.5,680.4,358.3,148.6,863.0,131.4,23.9,15,-12,75,31,2.4,0.71,6.6,Did not pass (single point and DR at 100 uM do not align) and fluorescence interference,,,,,,,,,,,,,,,,,,,1715,o1cccc1-c(n2)oc(c2C#N)N(CC3)CCN3C(=O)CSc(nn4)ccc4-n(n5)c(C)cc5C,Z358221038,490.539,2.83972,y,VAE,-56.68,-56.68,25,CC=1C=C(C)N(N1)C=2C=CC(SCC(=O)N3CCN(CC3)C=4OC(=NC4C#N)C5=CC=CO5)=NN2,Z358221038,Z358221038,90,3,YES,HTS,13.5,Achiral|None|,,,56,0.0
CACHE3HI_1715_57,Z370817946,CC1=C(CCC(NC(c2ccccc2)c2ccccn2)=O)C(Nc2c1c(C)nn2C)=O,100.0,nsp3_SARS2:MVC039-H10:P222987,NSP3_SARS2,"25 mM HEPES pH 7.0, 20 mM NaCl, 0.05% BSA, 0.05% Tween-20",RT,"30 cmpds, 60 D/A",12.5,200.0,Terbium-cryptate anti-His Mab/XL-665 conjugated streptavidin,0.031,5.0,100.0,2694,5266,1954.7,2237,3341,1493.5,2486.4,115.3,22.4,2255.8,112.0,35.6,0.8,0.89,21.6,20.1,22.6,9.3,22.3,9.8,No,Yes,CACHE3HI_1715_57,1670.4,2255.5,2308.3,212.8,136.3,139.1,2327.0,138.7,30,3.3,0.9,3.4,-0.1,0,0.83,16.8,below initial 30% inhibition criteria/no visible inhibition below 100 uM,,,,,,,,,,,,,,,,,,,1715,c1ccccc1[C@H](c2ccccn2)NC(=O)CCc(c3C)c(=O)[nH]c(c34)n(C)nc4C,Z370817946,415.494,,y,HTS,-65.81982189,-65.81982189,68,CC1=NN(C)C=2NC(=O)C(CCC(=O)NC(C=3C=CC=CC3)C=4C=CC=CN4)=C(C)C12,Z370817946,Z370817946,90,3,YES,HTS,13.5,Racemic or presumed racemic or meso|None|,Cc1nn(C)c2[nH]c(=O)c(CCC(=O)NC(c3ccccc3)c4ccccn4)c(C)c12,Z370817946,57,0.0
CACHE3HI_1715_58,Z685708640,C1COCCN1c1ccc(cn1)c1nnc(c2ccccc2OCc2ccc(cc2)F)o1,97.0,nsp3_SARS2:MVC039-H10:P222987,NSP3_SARS2,"25 mM HEPES pH 7.0, 20 mM NaCl, 0.05% BSA, 0.05% Tween-20",RT,"30 cmpds, 60 D/A",12.5,200.0,Terbium-cryptate anti-His Mab/XL-665 conjugated streptavidin,0.031,5.0,100.0,12522,6458,515.7,7818,4332,554.1,2486.4,115.3,83.1,2255.8,112.0,79.4,0.8,0.89,21.6,20.1,22.6,9.3,22.3,9.8,Yes,Yes,CACHE3HI_1715_58,449.8,518.8,784.2,428.9,416.9,237.2,863.0,131.4,56.5,47.1,10.8,40.7,39,14.5,0.71,6.6,Did not pass HTRF; fluorescence interference,,,,,,,,,,,,,,,,,,,1715,c1cc(F)ccc1COc(cccc2)c2-c3nnc(o3)-c4ccc(nc4)N5CCOCC5,Z685708640,432.453,,y,HTS,-66.44425631,-66.44425631,15,FC=1C=CC(COC=2C=CC=CC2C3=NN=C(O3)C=4C=CC(=NC4)N5CCOCC5)=CC1,Z685708640,Z685708640,90,3,YES,HTS,13.5,Achiral|None|,,,58,0.0
CACHE3HI_1715_59,Z70805702,Cc1c(CCC(N(Cc2nnc(c3ccc(cc3)[Cl])o2)C2CC2)=O)c(C)n2c(ncn2)n1,100.0,nsp3_SARS2:MVC039-H10:P222987,NSP3_SARS2,"25 mM HEPES pH 7.0, 20 mM NaCl, 0.05% BSA, 0.05% Tween-20",RT,"30 cmpds, 60 D/A",12.5,200.0,Terbium-cryptate anti-His Mab/XL-665 conjugated streptavidin,0.031,5.0,100.0,1744,4158,2384.2,1194,2670,2236.2,2486.4,115.3,4.3,2255.8,112.0,0.9,0.8,0.89,21.6,20.1,22.6,9.3,22.3,9.8,No,No,,,,,,,,,,,,,,,,,,,,,,,,,,,,,,,,,,,,,1715,n1cnn(c12)c(C)c(c(n2)C)CCC(=O)N(C3CC3)Cc4nnc(o4)-c5ccc(Cl)cc5,Z70805702,451.914,3.56834,y,VAE,-54.21,-54.21,27,CC1=NC2=NC=NN2C(C)=C1CCC(=O)N(CC3=NN=C(O3)C=4C=CC(Cl)=CC4)C5CC5,Z70805702,Z70805702,90,3,YES,HTS,13.5,Achiral|None|,,,59,0.0
CACHE3HI_1715_6,Z112166022,CC(C(N1CC(Nc2ccccc12)=O)=O)Sc1nnc(c2ccccc2F)n1Cc1ccccc1,99.0,nsp3_SARS2:MVC039-H10:P222987,NSP3_SARS2,"25 mM HEPES pH 7.0, 20 mM NaCl, 0.05% BSA, 0.05% Tween-20",RT,"30 cmpds, 60 D/A",12.5,200.0,Terbium-cryptate anti-His Mab/XL-665 conjugated streptavidin,0.031,5.0,100.0,1804,4633,2568.2,1237,2860,2312,2486.4,115.3,-3.5,2255.8,112.0,-2.6,0.8,0.89,21.6,20.1,22.6,9.3,22.3,9.8,No,No,,,,,,,,,,,,,,,,,,,,,,,,,,,,,,,,,,,,,1715,c1cccc(c12)NC(=O)CN2C(=O)[C@H](C)Sc(n3Cc4ccccc4)nnc3-c5c(F)cccc5,Z112166022,487.55,,y,HTS,-68.11899754,-68.11899754,79,CC(SC1=NN=C(C=2C=CC=CC2F)N1CC=3C=CC=CC3)C(=O)N4CC(=O)NC=5C=CC=CC45,Z112166022,Z112166022,90,3,YES,HTS,13.5,Racemic or presumed racemic or meso|None|,CC(Sc1nnc(c2ccccc2F)n1Cc3ccccc3)C(=O)N4CC(=O)Nc5ccccc45,Z112166022,6,0.0
CACHE3HI_1715_60,Z803628320,CC(Nc1cc(ccc1F)C(N1CCCC1c1ccc2c(c1)OCCO2)=O)=O,93.0,nsp3_SARS2:MVC039-H10:P222987,NSP3_SARS2,"25 mM HEPES pH 7.0, 20 mM NaCl, 0.05% BSA, 0.05% Tween-20",RT,"30 cmpds, 60 D/A",12.5,200.0,Terbium-cryptate anti-His Mab/XL-665 conjugated streptavidin,0.031,5.0,100.0,1902,4893,2572.6,1347,3038,2255.4,2486.4,115.3,-3.6,2255.8,112.0,0,0.8,0.89,21.6,20.1,22.6,9.3,22.3,9.8,No,No,,,,,,,,,,,,,,,,,,,,,,,,,,,,,,,,,,,,,1715,CC(=O)Nc(c(F)cc1)cc1C(=O)N2CCC[C@H]2c(c3)ccc(c34)OCCO4,Z803628320,384.406,,y,HTS,-67.40262245,-67.40262245,9,CC(=O)NC=1C=C(C=CC1F)C(=O)N2CCCC2C=3C=CC=4OCCOC4C3,Z803628320,Z803628320,90,3,YES,HTS,13.5,Racemic or presumed racemic or meso|None|,CC(=O)Nc1cc(ccc1F)C(=O)N2CCCC2c3ccc4OCCOc4c3,Z803628320,60,0.0
CACHE3HI_1715_61,Z88445458,CN1C(c2ccccc2C(CC(N(Cc2ccccc2)c2ccccc2)=O)=N1)=O,95.0,nsp3_SARS2:MVC039-H10:P222987,NSP3_SARS2,"25 mM HEPES pH 7.0, 20 mM NaCl, 0.05% BSA, 0.05% Tween-20",RT,"30 cmpds, 60 D/A",12.5,200.0,Terbium-cryptate anti-His Mab/XL-665 conjugated streptavidin,0.031,5.0,100.0,1903,4294,2256.4,1502,2835,1887.5,2486.4,115.3,9.7,2255.8,112.0,17.2,0.8,0.89,21.6,20.1,22.6,9.3,22.3,9.8,No,No,,,,,,,,,,,,,,,,,,,,,,,,,,,,,,,,,,,,,1715,c1ccccc1CN(c2ccccc2)C(=O)Cc3nn(C)c(=O)c(c34)cccc4,Z88445458,383.449,,y,HTS,-67.42019463,-67.42019463,12,CN1N=C(CC(=O)N(CC=2C=CC=CC2)C=3C=CC=CC3)C=4C=CC=CC4C1=O,Z88445458,Z88445458,90,3,YES,HTS,13.5,Achiral|None|,,,61,0.0
CACHE3HI_1715_62,Z90246893,C1CC(c2ccc3c(c2)OCCCO3)N(C1)CC1NC(c2c(csc2N=1)c1ccco1)=O,98.0,nsp3_SARS2:MVC039-H10:P222987,NSP3_SARS2,"25 mM HEPES pH 7.0, 20 mM NaCl, 0.05% BSA, 0.05% Tween-20",RT,"30 cmpds, 60 D/A",12.5,200.0,Terbium-cryptate anti-His Mab/XL-665 conjugated streptavidin,0.031,5.0,100.0,1809,3576,1976.8,3658,6927,1893.7,2416.6,106.2,19,2554.9,116.0,28.7,0.8,0.89,22.7,22.5,18.9,4.3,17.8,5.8,No,No,,,,,,,,,,,,,,,,,,,,,,,,,,,,,,,,,,,,,1715,o1cccc1-c2csc(c23)nc([nH]c3=O)C[N@@H+]4CCC[C@H]4c(c5)ccc(c56)OCCCO6,Z90246893,449.523,3.3259,y,VAE,-51.77,-51.77,40,O=C1NC(CN2CCCC2C=3C=CC=4OCCCOC4C3)=NC=5SC=C(C6=CC=CO6)C15,Z90246893,Z90246893,90,3,YES,HTS,13.5,Racemic or presumed racemic or meso|None|,O=c1[nH]c(CN2CCCC2c3ccc4OCCCOc4c3)nc5scc(c6ccco6)c15,Z90246893,62,0.0
CACHE3HI_1715_63,Z91167020,C1CC1N(Cc1ccccc1F)C(c1ccc(cc1)NS(c1ccc2c(c1)NC(N2)=O)(=O)=O)=O,93.0,nsp3_SARS2:MVC039-H10:P222987,NSP3_SARS2,"25 mM HEPES pH 7.0, 20 mM NaCl, 0.05% BSA, 0.05% Tween-20",RT,"30 cmpds, 60 D/A",12.5,200.0,Terbium-cryptate anti-His Mab/XL-665 conjugated streptavidin,0.031,5.0,100.0,1751,4378,2500.3,1194,2779,2327.5,2486.4,115.3,-0.6,2255.8,112.0,-3.3,0.8,0.89,21.6,20.1,22.6,9.3,22.3,9.8,No,No,,,,,,,,,,,,,,,,,,,,,,,,,,,,,,,,,,,,,1715,c1cccc(F)c1CN(C2CC2)C(=O)c3ccc(cc3)NS(=O)(=O)c(c4)ccc(c45)[nH]c(=O)[nH]5,Z91167020,480.513,3.6009,y,VAE,-53.29,-53.29,45,FC=1C=CC=CC1CN(C2CC2)C(=O)C=3C=CC(NS(=O)(=O)C=4C=CC=5NC(=O)NC5C4)=CC3,Z91167020,Z91167020,90,3,YES,HTS,13.5,Achiral|None|,,,63,0.0
CACHE3HI_1715_64,Z94792420,Cc1cccc(c1)OCc1nnc(o1)SC1=C(c2ccccc2)c2ccccc2NC1=O,92.0,nsp3_SARS2:MVC039-H10:P222987,NSP3_SARS2,"25 mM HEPES pH 7.0, 20 mM NaCl, 0.05% BSA, 0.05% Tween-20",RT,"30 cmpds, 60 D/A",12.5,200.0,Terbium-cryptate anti-His Mab/XL-665 conjugated streptavidin,0.031,5.0,100.0,84401,48207,571.2,OVRFLW,57657,?????,2486.4,115.3,80.8,2255.8,112.0,#VALUE!,0.8,0.89,21.6,20.1,22.6,9.3,22.3,9.8,Yes,?,CACHE3HI_1715_64,361.6,731,996.2,292.5,141.7,130.5,863.0,131.4,68.5,18,-18.2,22,1.4,-0.1,0.71,6.6,Passed HTRF,CACHE3HI_1715_64,75,78,2955,5264,Flag,3e-05,30.0,7.46e-13,0.0,0.0,-0.11,-0.14,4.3,0.0,45.7,100.0,missed %binding cutoff,1715,Cc1cc(ccc1)OCc2nnc(o2)Sc(c3-c4ccccc4)c(=O)[nH]c(c35)cccc5,Z94792420,441.503,,y,HTS,-65.29641804,-65.29641804,36,CC=1C=CC=C(OCC2=NN=C(SC3=C(C=4C=CC=CC4)C=5C=CC=CC5NC3=O)O2)C1,Z94792420,Z94792420,90,3,YES,HTS,13.5,Achiral|None|,,,64,0.0
CACHE3HI_1715_65,Z960056616,C1CCN(Cc2cccc(c2)NC(C2(CCOCC2)c2cccc(c2)C(F)(F)F)=O)C(C1)=O,98.0,nsp3_SARS2:MVC039-H10:P222987,NSP3_SARS2,"25 mM HEPES pH 7.0, 20 mM NaCl, 0.05% BSA, 0.05% Tween-20",RT,"30 cmpds, 60 D/A",12.5,200.0,Terbium-cryptate anti-His Mab/XL-665 conjugated streptavidin,0.031,5.0,100.0,1816,4652,2561.7,1171,2774,2368.9,2486.4,115.3,-3.2,2255.8,112.0,-5.3,0.8,0.89,21.6,20.1,22.6,9.3,22.3,9.8,No,No,,,,,,,,,,,,,,,,,,,,,,,,,,,,,,,,,,,,,1715,C1COCCC1(c(cc2C(F)(F)F)ccc2)C(=O)Nc(ccc3)cc3CN4CCCCC4=O,Z960056616,460.495,,y,HTS,-65.29241223,-65.29241223,82,FC(F)(F)C=1C=CC=C(C1)C2(CCOCC2)C(=O)NC=3C=CC=C(CN4CCCCC4=O)C3,Z960056616,Z960056616,90,3,YES,HTS,13.5,Achiral|None|,,,65,0.0
CACHE3HI_1715_66,Z97235912,C(CNC(c1ccccc1NC(CSc1nnc(c2ccccc2)[nH]1)=O)=O)c1ccccc1,100.0,nsp3_SARS2:MVC039-H10:P222987,NSP3_SARS2,"25 mM HEPES pH 7.0, 20 mM NaCl, 0.05% BSA, 0.05% Tween-20",RT,"30 cmpds, 60 D/A",12.5,200.0,Terbium-cryptate anti-His Mab/XL-665 conjugated streptavidin,0.031,5.0,100.0,2782,5156,1853.3,2206,3666,1661.8,2486.4,115.3,26.7,2255.8,112.0,27.7,0.8,0.89,21.6,20.1,22.6,9.3,22.3,9.8,No,No,,,,,,,,,,,,,,,,,,,,,,,,,,,,,,,,,,,,,1715,c1ccccc1-c2nc([nH]n2)SCC(=O)Nc(cccc3)c3C(=O)NCCc4ccccc4,Z97235912,457.549,,y,HTS,-67.02372428,-67.02372428,59,O=C(CSC1=NC(=NN1)C=2C=CC=CC2)NC=3C=CC=CC3C(=O)NCCC=4C=CC=CC4,Z97235912,Z2239072812,90,3,YES,HTS,13.5,Achiral|None|,,,66,0.0
CACHE3HI_1715_67,Z991898772,C1CN(CCN1c1cccc(c1)C(F)(F)F)c1c2cc[nH]c2ncn1,96.0,nsp3_SARS2:MVC039-H10:P222987,NSP3_SARS2,"25 mM HEPES pH 7.0, 20 mM NaCl, 0.05% BSA, 0.05% Tween-20",RT,"30 cmpds, 60 D/A",12.5,200.0,Terbium-cryptate anti-His Mab/XL-665 conjugated streptavidin,0.031,5.0,100.0,2456,4484,1825.7,1822,2910,1597.1,2486.4,115.3,27.9,2255.8,112.0,30.7,0.8,0.89,21.6,20.1,22.6,9.3,22.3,9.8,No,Yes,CACHE3HI_1715_67,1678.9,1999.3,2221,192.6,148.6,128.3,2321.0,109.0,29,14.5,4.5,3.8,1.8,0.9,0.84,21.3,Passed HTRF,CACHE3HI_1715_67,100,100,1280,886,,1.7e-05,16.95,2.6,2.5,10.35,-0.68,-4.69,0.05,6.7,37.7,100.0,missed %binding cutoff,1715,FC(F)(F)c1cc(ccc1)N(CC2)CCN2c3ncnc(c34)[nH]cc4,Z991898772,347.342,3.3033,y,QSAR,-41.19,-70.19,11,FC(F)(F)C=1C=CC=C(C1)N2CCN(CC2)C=3N=CN=C4NC=CC34,Z991898772,Z991898772,90,3,YES,HTS,13.5,Achiral|None|,,,67,0.0
CACHE3HI_1715_68,Z99422806,C(C#N)c1ccc(cc1)NC([C@H](Cc1c[nH]c2ccccc12)NC(c1ccc(cc1)F)=O)=O,95.0,nsp3_SARS2:MVC039-H10:P222987,NSP3_SARS2,"25 mM HEPES pH 7.0, 20 mM NaCl, 0.05% BSA, 0.05% Tween-20",RT,"30 cmpds, 60 D/A",12.5,200.0,Terbium-cryptate anti-His Mab/XL-665 conjugated streptavidin,0.031,5.0,100.0,1702,4545,2670.4,1275,2307,1809.4,2486.4,115.3,-7.8,2255.8,112.0,20.8,0.8,0.89,21.6,20.1,22.6,9.3,22.3,9.8,No,No,,,,,,,,,,,,,,,,,,,,,,,,,,,,,,,,,,,,,1715,N#CCc1ccc(cc1)NC(=O)[C@@H](NC(=O)c2ccc(F)cc2)Cc3c[nH]c(c34)cccc4,Z99422806,440.476,,y,HTS,-64.95474791,-64.95474791,76,FC=1C=CC(=CC1)C(=O)N[C@@H](CC2=CNC=3C=CC=CC23)C(=O)NC=4C=CC(CC#N)=CC4,Z99422806,Z99422806,90,3,YES,HTS,13.5,Single known enantiomer|None|,,,68,0.0
CACHE3HI_1715_69,Z994299104,CC(C)CC(Nc1ccc(cc1)c1csc(CN2C(N3C=CC=CC3=N2)=O)n1)=O,100.0,nsp3_SARS2:MVC039-H10:P222987,NSP3_SARS2,"25 mM HEPES pH 7.0, 20 mM NaCl, 0.05% BSA, 0.05% Tween-20",RT,"30 cmpds, 60 D/A",12.5,200.0,Terbium-cryptate anti-His Mab/XL-665 conjugated streptavidin,0.031,5.0,100.0,1663,2222,1336.1,1514,1645,1086.5,2486.4,115.3,48.5,2255.8,112.0,54.5,0.8,0.89,21.6,20.1,22.6,9.3,22.3,9.8,Yes,Yes,CACHE3HI_1715_69,1211.3,1623.5,2005.7,363.4,282.1,219.5,2327.0,138.7,51,32.2,14.7,10.3,6.6,3.7,0.83,16.8,Passed HTRF,CACHE3HI_1715_69,100,100,1305,427,,0.0001,100.0,9.49e-13,0.0,0.0,-0.29,-0.14,29.5,0.0,44.3,100.0,no measurable binding,1715,CC(C)CC(=O)Nc(cc1)ccc1-c(cs2)nc2Cn(n3)c(=O)n(c34)cccc4,Z994299104,407.489,3.6524,y,VAE,-54.65,-54.65,74,CC(C)CC(=O)NC=1C=CC(=CC1)C2=CSC(CN3N=C4C=CC=CN4C3=O)=N2,Z994299104,Z994299104,90,3,YES,HTS,13.5,Achiral|None|,,,69,0.0
CACHE3HI_1715_7,Z112241792,C1CCc2nnc(n2CC1)SCC1NC(c2cc(ccc2N=1)[Cl])=O,93.0,nsp3_SARS2:MVC039-H10:P222987,NSP3_SARS2,"25 mM HEPES pH 7.0, 20 mM NaCl, 0.05% BSA, 0.05% Tween-20",RT,"30 cmpds, 60 D/A",12.5,200.0,Terbium-cryptate anti-His Mab/XL-665 conjugated streptavidin,0.031,5.0,100.0,2371,4571,1927.9,1156,2458,2126.3,2486.4,115.3,23.6,2255.8,112.0,6,0.8,0.89,21.6,20.1,22.6,9.3,22.3,9.8,No,No,,,,,,,,,,,,,,,,,,,,,,,,,,,,,,,,,,,,,1715,c1c(Cl)ccc(c12)nc([nH]c2=O)CSc(nn3)n(c34)CCCCC4,Z112241792,361.848,3.1867,y,VAE,-52.72,-52.72,37,ClC=1C=CC=2N=C(CSC3=NN=C4CCCCCN34)NC(=O)C2C1,Z112241792,Z112241792,90,3,YES,HTS,13.5,Achiral|None|,,,7,0.0
CACHE3HI_1715_70,Z3393867123,CCc1c[nH]c2c1c(ncn2)N1CCC(C1)c1ccn[nH]1,100.0,nsp3_SARS2:MVC039-H10:P222987,NSP3_SARS2,"25 mM HEPES pH 7.0, 20 mM NaCl, 0.05% BSA, 0.05% Tween-20",RT,"30 cmpds, 60 D/A",12.5,200.0,Terbium-cryptate anti-His Mab/XL-665 conjugated streptavidin,0.031,5.0,100.0,1515,3174,2095.1,1074,2298,2139.7,2486.4,115.3,16.5,2255.8,112.0,5.4,0.8,0.89,21.6,20.1,22.6,9.3,22.3,9.8,No,No,,,,,,,,,,,,,,,,,,,,,,,,,,,,,,,,,,,,,1715,CCc1c[nH]c(c12)ncnc2N(C3)CC[C@H]3c4ccn[nH]4,Z3393867123,282.347,2.2373,y,QSAR,-41.01,-70.01,12,CCC1=CNC=2N=CN=C(N3CCC(C3)C4=CC=NN4)C12,Z3393867123,Z3393867123,90,3,YES,Advanced,21.7,Racemic or presumed racemic or meso|None|,CCc1c[nH]c2ncnc(N3CCC(C3)c4ccn[nH]4)c12,Z3393867123,70,0.0
CACHE3HI_1715_71,Z3829623941,CC(CC(NC)=O)Nc1c2c3ccc(cc3[nH]c2ncn1)[Br],96.0,nsp3_SARS2:MVC039-H10:P222987,NSP3_SARS2,"25 mM HEPES pH 7.0, 20 mM NaCl, 0.05% BSA, 0.05% Tween-20",RT,"30 cmpds, 60 D/A",12.5,200.0,Terbium-cryptate anti-His Mab/XL-665 conjugated streptavidin,0.031,5.0,100.0,2931,2146,732.2,1828,1399,765.3,2462.3,113.2,73.6,2264.7,110.5,69.6,0.83,0.82,21.8,20.5,20.8,8.8,20.7,8.0,Yes,Yes,CACHE3HI_1715_71,379.4,184.2,696.1,364.2,134.7,150.7,863.0,131.4,66.1,92.8,22.8,31.8,0.5,2.6,0.71,6.6,Passed HTRF,CACHE3HI_1715_71,53,88,2936,2001,Flag,2.2e-05,21.99,4.5,41.9,12.31,7.53,10.6,2.0,111.8,37.5,50.0,Advanced to Round 2,1715,CNC(=O)C[C@@H](C)Nc1ncnc2[nH]c(c3c12)cc(Br)cc3,m_27bbb____10811286____16463354,362.229,2.81,y,FIN,-48.28,-64.28,3,CNC(=O)CC(C)NC=1N=CN=C2NC=3C=C(Br)C=CC3C12,m_27bbb____10811286____16463354,Z3829623941,90,3,NO,sRDB,83.2,Racemic or presumed racemic or meso|None|,,Z3829623941,71,1.0
CACHE3HI_1715_72,Z8415269078,C(CNc1c2c3ccc(cc3[nH]c2ncn1)F)Cn1cncn1,100.0,nsp3_SARS2:MVC039-H10:P222987,NSP3_SARS2,"25 mM HEPES pH 7.0, 20 mM NaCl, 0.05% BSA, 0.05% Tween-20",RT,"30 cmpds, 60 D/A",12.5,200.0,Terbium-cryptate anti-His Mab/XL-665 conjugated streptavidin,0.031,5.0,100.0,1434,3058,2132.5,1430,3183,2225.9,2419.5,111.3,12.4,2447.0,109.5,9.5,0.85,0.85,21.7,22.2,25.4,14.3,25.0,13.5,No,No,,,,,,,,,,,,,,,,,,,,,,,,,,,,,,,,,,,,,1715,n1cncn1CCCNc2ncnc3[nH]c(c4c23)cc(F)cc4,m_27bbb____16789478____11246302,311.323,2.344,y,FIN,-51.45,-67.45,5,FC=1C=CC2=C(C1)NC=3N=CN=C(NCCCN4C=NC=N4)C23,m_27bbb____16789478____11246302,Z8415269078,90,3,NO,sRDB,83.2,Achiral|None|,,,72,0.0
CACHE3HI_1715_76,Z2370541995,CCCN1CC(CC1=O)CNc1c2c3ccc(cc3[nH]c2ncn1)F,100.0,nsp3_SARS2:MVC039-H10:P222987,NSP3_SARS2,"25 mM HEPES pH 7.0, 20 mM NaCl, 0.05% BSA, 0.05% Tween-20",RT,"30 cmpds, 60 D/A",12.5,200.0,Terbium-cryptate anti-His Mab/XL-665 conjugated streptavidin,0.031,5.0,100.0,1885,2756,1462.1,1996,3025,1515.5,2448.0,110.5,42.2,2670.4,113.1,45.2,0.85,0.89,22.1,23.6,21.6,10.4,21.7,10.4,Yes,Yes,CACHE3HI_1715_76,1253.1,1506.8,1791.2,105.5,102.5,114.2,2309.5,107.9,48,36.5,23.5,-0.1,-0.2,0.3,0.79,21.4,Passed HTRF,CACHE3HI_1715_76,25,23,10899,7631,,0.2,200000.0,0.2,107485.6,0.17,2.38,11.07,0.3,573739.6,18.7,30.0,missed KD cutoff (KD>100 uM),1715,CCCN1C[C@H](CC1=O)CNc2ncnc3[nH]c(c4c23)cc(F)cc4,m_27bbd____11352476____11246302,341.388,2.921,y,FIN,-52.54,-68.54,6,CCCN1CC(CNC=2N=CN=C3NC=4C=C(F)C=CC4C23)CC1=O,m_27bbd____11352476____11246302,Z2370541995,90,3,NO,sRDB,83.2,Racemic or presumed racemic or meso|None|,,Z2370541995,76,1.0
CACHE3HI_1715_78,Z3078690975,C(CN1CCOC1=O)Nc1c2c3ccc(cc3[nH]c2ncn1)F,99.0,nsp3_SARS2:MVC039-H10:P222987,NSP3_SARS2,"25 mM HEPES pH 7.0, 20 mM NaCl, 0.05% BSA, 0.05% Tween-20",RT,"30 cmpds, 60 D/A",12.5,200.0,Terbium-cryptate anti-His Mab/XL-665 conjugated streptavidin,0.031,5.0,100.0,2803,1067,380.7,2725,1021,374.7,2448.0,110.5,88.4,2670.4,113.1,89.8,0.85,0.89,22.1,23.6,21.6,10.4,21.7,10.4,Yes,Yes,CACHE3HI_1715_78,#DIV/0!,543.9,716.8,#DIV/0!,525.1,340.5,910.6,135.5,#VALUE!,47.3,25,#VALUE!,50.3,26.5,0.73,6.7,fluorescence inteference,,,,,,,,,,,,,,,,,,,1715,O1CCN(C1=O)CCNc2ncnc3[nH]c(c4c23)cc(F)cc4,m_27bbd____13759702____11246302,315.307,2.114,y,FIN,-46.27,-62.27,32,FC=1C=CC2=C(C1)NC=3N=CN=C(NCCN4CCOC4=O)C23,m_27bbd____13759702____11246302,Z3078690975,90,3,NO,sRDB,83.2,Achiral|None|,,,78,0.0
CACHE3HI_1715_79,Z2409843057,C1COC[C@@H]1Nc1c2c3ccc(cc3[nH]c2ncn1)F,99.0,nsp3_SARS2:MVC039-H10:P222987,NSP3_SARS2,"25 mM HEPES pH 7.0, 20 mM NaCl, 0.05% BSA, 0.05% Tween-20",RT,"30 cmpds, 60 D/A",12.5,200.0,Terbium-cryptate anti-His Mab/XL-665 conjugated streptavidin,0.031,5.0,100.0,1652,2964,1794.2,1305,2064,1581.6,2462.3,113.2,28.4,2264.7,110.5,31.7,0.83,0.82,21.8,20.5,20.8,8.8,20.7,8.0,No,Yes,CACHE3HI_1715_79,1574.8,1752,1891.7,121.5,119.4,114.8,2131.1,107.7,27.5,18.7,11.8,0.7,0.6,0.4,0.76,19.8,below initial 30% inhibition criteria/no visible inhibition below 100 uM,,,,,,,,,,,,,,,,,,,1715,c1cc(F)cc(c1c23)[nH]c2ncnc3N[C@@H]4CCOC4,m_27bbd____13947642____11246302,272.282,2.451,y,FIN,-46.35,-62.35,13,FC=1C=CC2=C(C1)NC=3N=CN=C(N[C@@H]4CCOC4)C23,m_27bbd____13947642____11246302,Z2409843057,90,3,NO,sRDB,83.2,Single known enantiomer|None|,,,79,0.0
CACHE3HI_1715_8,Z1139220270,C1C(CN1c1c2cc[nH]c2ncn1)n1cccn1,100.0,nsp3_SARS2:MVC039-H10:P222987,NSP3_SARS2,"25 mM HEPES pH 7.0, 20 mM NaCl, 0.05% BSA, 0.05% Tween-20",RT,"30 cmpds, 60 D/A",12.5,200.0,Terbium-cryptate anti-His Mab/XL-665 conjugated streptavidin,0.031,5.0,100.0,1648,3778,2292.5,1170,2521,2154.7,2486.4,115.3,8.2,2255.8,112.0,4.7,0.8,0.89,21.6,20.1,22.6,9.3,22.3,9.8,No,No,,,,,,,,,,,,,,,,,,,,,,,,,,,,,,,,,,,,,1715,n1cccn1C2CN(C2)c3ncnc(c34)[nH]cc4,Z1139220270,240.267,1.2157,y,QSAR,-35.36,-64.36,8,C1C(CN1C=2N=CN=C3NC=CC23)N4C=CC=N4,Z1139220270,Z1139220270,90,3,YES,HTS,13.5,Achiral|None|,,,8,0.0
CACHE3HI_1715_80,Z8415269583,CCCn1c(CNc2c3c4ccc(cc4[nH]c3ncn2)[Br])ncn1,92.0,nsp3_SARS2:MVC039-H10:P222987,NSP3_SARS2,"25 mM HEPES pH 7.0, 20 mM NaCl, 0.05% BSA, 0.05% Tween-20",RT,"30 cmpds, 60 D/A",12.5,200.0,Terbium-cryptate anti-His Mab/XL-665 conjugated streptavidin,0.031,5.0,100.0,OVRFLW,OVRFLW,?????,OVRFLW,69712,?????,2348.5,117.3,#VALUE!,2395.6,115.6,#VALUE!,0.86,0.86,20.0,20.7,23.3,12.0,22.5,10.8,?,?,CACHE3HI_1715_80,#DIV/0!,#DIV/0!,386.3,#DIV/0!,#DIV/0!,368.8,966.7,127.8,#VALUE!,#VALUE!,69.2,#VALUE!,#VALUE!,28.7,0.69,7.6,Did not pass (no DR),,,,,,,,,,,,,,,,,,,1715,CCCn1ncnc1CNc2ncnc3[nH]c(c4c23)cc(Br)cc4,m_27bbd____16505856____16463354,386.255,3.487,y,FIN,-49.42,-65.42,30,CCCN1N=CN=C1CNC=2N=CN=C3NC=4C=C(Br)C=CC4C23,m_27bbd____16505856____16463354,Z8415269583,90,3,NO,sRDB,83.2,Achiral|None|,,,80,0.0
CACHE3HI_1715_82,Z8415270384,C(CNc1c2c3ccc(cc3[nH]c2ncn1)[Br])Cn1cnnc1,100.0,nsp3_SARS2:MVC039-H10:P222987,NSP3_SARS2,"25 mM HEPES pH 7.0, 20 mM NaCl, 0.05% BSA, 0.05% Tween-20",RT,"30 cmpds, 60 D/A",12.5,200.0,Terbium-cryptate anti-His Mab/XL-665 conjugated streptavidin,0.031,5.0,100.0,3908,4288,1097.2,5015,5049,1006.8,2448.0,110.5,57.8,2670.4,113.1,65.1,0.85,0.89,22.1,23.6,21.6,10.4,21.7,10.4,Yes,Yes,CACHE3HI_1715_82,865.8,1895.6,2280.5,262.4,127.9,97.6,2486.1,108.7,68.2,24.8,8.6,6.5,0.8,-0.5,0.8,22.9,Passed HTRF,CACHE3HI_1715_82,25,40,6057,3369,,0.5,500000.0,0.03,13319.8,0.02,0.18,1.84,0.0,35895.0,37.1,30.0,missed KD cutoff (KD>100 uM),1715,c1nncn1CCCNc2ncnc3[nH]c(c4c23)cc(Br)cc4,m_27bbd____17759304____16463354,372.229,2.967,y,FIN,-46.78,-62.78,16,BrC=1C=CC2=C(C1)NC=3N=CN=C(NCCCN4C=NN=C4)C23,m_27bbd____17759304____16463354,Z8415270384,90,3,NO,sRDB,83.2,Achiral|None|,,,82,1.0
CACHE3HI_1715_83,Z4026992804,C1CC1(CNc1c2c3ccc(cc3[nH]c2ncn1)[Br])C(N)=O,98.0,nsp3_SARS2:MVC039-H10:P222987,NSP3_SARS2,"25 mM HEPES pH 7.0, 20 mM NaCl, 0.05% BSA, 0.05% Tween-20",RT,"30 cmpds, 60 D/A",12.5,200.0,Terbium-cryptate anti-His Mab/XL-665 conjugated streptavidin,0.031,5.0,100.0,64128,29896,466.2,9991,6379,638.5,2419.5,111.3,84.6,2447.0,109.5,77.4,0.85,0.85,21.7,22.2,25.4,14.3,25.0,13.5,Yes,Yes,CACHE3HI_1715_83,461.3,1318,1756.7,394.9,154.7,98.2,2043.8,103.7,81.6,37.4,14.8,15,2.6,-0.3,0.8,19.7,Passed HTRF,CACHE3HI_1715_83,70,93,5335,1937,,1.0,1000000.0,0.4,228648.2,0.42,-0.51,-0.99,2.1,1156700.8,19.7,50.0,missed KD cutoff (KD>100 uM),1715,C1CC1(C(=O)N)CNc2ncnc3[nH]c(c4c23)cc(Br)cc4,m_27bbd____20067616____16463354,360.214,2.551,y,FIN,-47.86,-63.86,2,NC(=O)C1(CNC=2N=CN=C3NC=4C=C(Br)C=CC4C23)CC1,m_27bbd____20067616____16463354,Z4026992804,90,3,NO,sRDB,83.2,Achiral|None|,,,83,1.0
CACHE3HI_1715_84,Z2364788534,CC(CN1CCCC1=O)Nc1c2c3ccc(cc3[nH]c2ncn1)F,100.0,nsp3_SARS2:MVC039-H10:P222987,NSP3_SARS2,"25 mM HEPES pH 7.0, 20 mM NaCl, 0.05% BSA, 0.05% Tween-20",RT,"30 cmpds, 60 D/A",12.5,200.0,Terbium-cryptate anti-His Mab/XL-665 conjugated streptavidin,0.031,5.0,100.0,1874,3414,1821.8,1832,3996,2181.2,2448.0,110.5,26.8,2670.4,113.1,19.1,0.85,0.89,22.1,23.6,21.6,10.4,21.7,10.4,No,No,,,,,,,,,,,,,,,,,,,,,,,,,,,,,,,,,,,,,1715,O=C1CCCN1C[C@@H](C)Nc2ncnc3[nH]c(c4c23)cc(F)cc4,m_27bbd____2028940____11246302,327.361,2.673,y,FIN,-50.12,-66.12,31,CC(CN1CCCC1=O)NC=2N=CN=C3NC=4C=C(F)C=CC4C23,m_27bbd____2028940____11246302,Z2364788534,90,3,NO,sRDB,83.2,Racemic or presumed racemic or meso|None|,,Z2364788534,84,0.0
CACHE3HI_1715_85,Z5373275622,CNC([C@@H]1CCCC[C@@H]1Nc1c2c3ccc(cc3[nH]c2ncn1)F)=O,98.0,nsp3_SARS2:MVC039-H10:P222987,NSP3_SARS2,"25 mM HEPES pH 7.0, 20 mM NaCl, 0.05% BSA, 0.05% Tween-20",RT,"30 cmpds, 60 D/A",12.5,200.0,Terbium-cryptate anti-His Mab/XL-665 conjugated streptavidin,0.031,5.0,100.0,1849,1741,941.6,1824,1689,926,2348.5,117.3,63.1,2395.6,115.6,64.5,0.86,0.86,20.0,20.7,23.3,12.0,22.5,10.8,Yes,Yes,CACHE3HI_1715_85,844.6,1273.7,1614.7,119.3,102.9,117.2,2321.0,109.0,66.7,47.3,31.9,0.5,-0.3,0.4,0.84,21.3,Passed HTRF,CACHE3HI_1715_85,88,100,1631,1110,,3.63e-05,36.29,4.8,37.9,14.04,9.35,13.4,1.8,157.1,24.1,100.0,Advanced to Round 2,1715,CNC(=O)[C@H]1[C@@H](CCCC1)Nc2ncnc3[nH]c(c4c23)cc(F)cc4,m_27bbd____20641752____11246302,341.388,2.967,y,FIN,-48.4,-64.4,27,"CNC(=O)[C@@H]1CCCC[C@@H]1NC=2N=CN=C3NC=4C=C(F)C=CC4C23 |&1:4,9,r|",m_27bbd____20641752____11246302,Z5373275622,90,3,NO,sRDB,83.2,Racemic diastereomer with known relative stereochemistry|Cis|Racemic diastereomer with known relative stereochemistry,,Z5373275622,85,1.0
CACHE3HI_1715_86,Z8415268766,C(Cn1cc(CO)nn1)Nc1c2c3ccc(cc3[nH]c2ncn1)F,100.0,nsp3_SARS2:MVC039-H10:P222987,NSP3_SARS2,"25 mM HEPES pH 7.0, 20 mM NaCl, 0.05% BSA, 0.05% Tween-20",RT,"30 cmpds, 60 D/A",12.5,200.0,Terbium-cryptate anti-His Mab/XL-665 conjugated streptavidin,0.031,5.0,100.0,1572,2979,1895,1498,2909,1941.9,2419.5,111.3,22.7,2447.0,109.5,21.6,0.85,0.85,21.7,22.2,25.4,14.3,25.0,13.5,No,No,,,,,,,,,,,,,,,,,,,,,,,,,,,,,,,,,,,,,1715,OCc1cn(nn1)CCNc2ncnc3[nH]c(c4c23)cc(F)cc4,m_27bbd____21537114____11246302,327.322,1.446,y,FIN,-57.77,-73.77,29,OCC1=CN(CCNC=2N=CN=C3NC=4C=C(F)C=CC4C23)N=N1,m_27bbd____21537114____11246302,Z8415268766,90,3,NO,sRDB,83.2,Achiral|None|,,,86,0.0
CACHE3HI_1715_88,Z8415421838,CC(C1(CCC1)OC)Nc1c2c3ccc(cc3[nH]c2ncn1)F,98.0,nsp3_SARS2:MVC039-H10:P222987,NSP3_SARS2,"25 mM HEPES pH 7.0, 20 mM NaCl, 0.05% BSA, 0.05% Tween-20",RT,"30 cmpds, 60 D/A",12.5,200.0,Terbium-cryptate anti-His Mab/XL-665 conjugated streptavidin,0.031,5.0,100.0,8903,4818,541.2,10902,5764,528.7,2419.5,111.3,81.4,2447.0,109.5,82.1,0.85,0.85,21.7,22.2,25.4,14.3,25.0,13.5,Yes,Yes,CACHE3HI_1715_88,616.5,940.6,1894.5,316,272,182.4,2377.1,176.8,80,65.3,21.9,6.3,4.3,0.3,0.79,13.4,Passed HTRF,CACHE3HI_1715_88,100,100,1330,1163,,2.76e-06,2.76,0.7,9.1,2.8,-1.08,-0.31,4.7,24.1,37.9,100.0,Advanced to Round 2,1715,C1CCC1(OC)[C@@H](C)Nc2ncnc3[nH]c(c4c23)cc(F)cc4,m_27bjb____10970366____11246302,314.362,3.62,y,FIN,-47.19,-63.19,28,COC1(CCC1)C(C)NC=2N=CN=C3NC=4C=C(F)C=CC4C23,Z8415421838,Z8415421838,90,3,NO,sRDB,83.2,Racemic or presumed racemic or meso|None|,,,88,1.0
CACHE3HI_1715_89,Z8415421695,COCC(C1(CC1)Nc1c2c3ccc(cc3[nH]c2ncn1)[Br])O,98.0,nsp3_SARS2:MVC039-H10:P222987,NSP3_SARS2,"25 mM HEPES pH 7.0, 20 mM NaCl, 0.05% BSA, 0.05% Tween-20",RT,"30 cmpds, 60 D/A",12.5,200.0,Terbium-cryptate anti-His Mab/XL-665 conjugated streptavidin,0.031,5.0,100.0,5579,2910,521.6,4290,2631,613.3,2416.6,106.2,82,2554.9,116.0,80.1,0.8,0.89,22.7,22.5,18.9,4.3,17.8,5.8,Yes,Yes,CACHE3HI_1715_89,574,1311.9,1706.7,408.8,220.2,228.3,2377.1,176.8,81.9,48.4,30.5,10.5,2,2.3,0.79,13.4,Passed HTRF,CACHE3HI_1715_89,70,100,6784,2261,Flag,6.31e-05,63.13,4.0,77.0,6.88,5.28,9.84,1.4,177.8,43.3,50.0,KD is higher than top concentration tested,1715,COC[C@H](O)C1(CC1)Nc2ncnc3[nH]c(c4c23)cc(Br)cc4,m_27bjb____14595266____16463354,377.24,2.825,y,FIN,-53.0,-69.0,8,COCC(O)C1(CC1)NC=2N=CN=C3NC=4C=C(Br)C=CC4C23,Z8415421695,Z8415421695,90,3,NO,sRDB,83.2,Racemic or presumed racemic or meso|None|,,,89,1.0
CACHE3HI_1715_9,Z1148794324,C1CN(CC1c1ccccc1F)c1c2cc[nH]c2ncn1,91.0,nsp3_SARS2:MVC039-H10:P222987,NSP3_SARS2,"25 mM HEPES pH 7.0, 20 mM NaCl, 0.05% BSA, 0.05% Tween-20",RT,"30 cmpds, 60 D/A",12.5,200.0,Terbium-cryptate anti-His Mab/XL-665 conjugated streptavidin,0.031,5.0,100.0,3473,4846,1395.3,2622,4851,1850.1,2416.6,106.2,44.2,2554.9,116.0,30.5,0.8,0.89,22.7,22.5,18.9,4.3,17.8,5.8,Yes,Yes,CACHE3HI_1715_9,1967.3,2282.9,2367.6,164.7,110.8,100,2421.3,102.7,19.6,6,2.3,2.7,0.3,-0.1,0.87,23.6,below initial 30% inhibition criteria/no visible inhibition below 100 uM,,,,,,,,,,,,,,,,,,,1715,c1c[nH]c(c12)ncnc2N(C3)CC[C@H]3c4c(F)cccc4,Z1148794324,282.32,3.0909,y,QSAR,-44.48,-73.48,17,FC=1C=CC=CC1C2CCN(C2)C=3N=CN=C4NC=CC34,Z1148794324,Z1148794324,90,3,YES,HTS,13.5,Racemic or presumed racemic or meso|None|,Fc1ccccc1C2CCN(C2)c3ncnc4[nH]ccc34,Z1148794324,9,0.0
CACHE3HI_1715_90,Z8415421801,C1CSCC1(CO)Nc1c2c3ccc(cc3[nH]c2ncn1)[Br],100.0,nsp3_SARS2:MVC039-H10:P222987,NSP3_SARS2,"25 mM HEPES pH 7.0, 20 mM NaCl, 0.05% BSA, 0.05% Tween-20",RT,"30 cmpds, 60 D/A",12.5,200.0,Terbium-cryptate anti-His Mab/XL-665 conjugated streptavidin,0.031,5.0,100.0,OVRFLW,OVRFLW,?????,OVRFLW,OVRFLW,?????,2348.5,117.3,#VALUE!,2395.6,115.6,#VALUE!,0.86,0.86,20.0,20.7,23.3,12.0,22.5,10.8,?,?,CACHE3HI_1715_90,#DIV/0!,379.8,400.8,#DIV/0!,#DIV/0!,359.3,910.6,135.5,#VALUE!,#VALUE!,65.8,#VALUE!,#VALUE!,28.9,0.73,6.7,did not pass (no DR),,,,,,,,,,,,,,,,,,,1715,C1SCC[C@]1(CO)Nc2ncnc3[nH]c(c4c23)cc(Br)cc4,m_27bjb____15147350____16463354,379.28,3.154,y,FIN,-48.41,-64.41,34,OCC1(CCSC1)NC=2N=CN=C3NC=4C=C(Br)C=CC4C23,Z8415421801,Z8415421801,90,3,NO,sRDB,83.2,Racemic or presumed racemic or meso|None|,,,90,0.0
CACHE3HI_1715_91,Z5321692946,CC1(CC(C1)O)Nc1c2c3ccc(cc3[nH]c2ncn1)F,100.0,nsp3_SARS2:MVC039-H10:P222987,NSP3_SARS2,"25 mM HEPES pH 7.0, 20 mM NaCl, 0.05% BSA, 0.05% Tween-20",RT,"30 cmpds, 60 D/A",12.5,200.0,Terbium-cryptate anti-His Mab/XL-665 conjugated streptavidin,0.031,5.0,100.0,1790,2191,1224,1695,2026,1195.3,2419.5,111.3,51.8,2447.0,109.5,53.6,0.85,0.85,21.7,22.2,25.4,14.3,25.0,13.5,Yes,Yes,CACHE3HI_1715_91,1060,1423.5,1797.8,115,107.7,115,2309.5,107.9,56.8,40.2,23.2,0.3,0,0.3,0.79,21.4,Passed HTRF,CACHE3HI_1715_91,43,100,3285,1514,,0.1,100000.0,0.15,34110.8,0.14,1.82,15.67,0.1,192931.8,17.6,50.0,missed KD cutoff (KD>100 uM),1715,C1[C@@H](O)C[C@@]1(C)Nc2ncnc3[nH]c(c4c23)cc(F)cc4,m_27bjb____17520642____11246302,286.309,2.575,y,FIN,-51.21,-67.21,22,CC1(CC(O)C1)NC=2N=CN=C3NC=4C=C(F)C=CC4C23,m_27bjb____17520642____11246302,Z5321692946,90,3,NO,sRDB,83.2,Diastereomeric mixture|Unequal mixture of geometric isomers|Unequal mixture of Cis/Trans substituents at ring with unknown ratio,,Z5321692946,91,1.0
CACHE3HI_1715_92,Z8415421810,CCC(c1nccs1)Nc1c2c3ccc(cc3[nH]c2ncn1)F,97.0,nsp3_SARS2:MVC039-H10:P222987,NSP3_SARS2,"25 mM HEPES pH 7.0, 20 mM NaCl, 0.05% BSA, 0.05% Tween-20",RT,"30 cmpds, 60 D/A",12.5,200.0,Terbium-cryptate anti-His Mab/XL-665 conjugated streptavidin,0.031,5.0,100.0,2152,2897,1346.2,2118,2884,1361.7,2348.5,117.3,44.9,2395.6,115.6,45.3,0.86,0.86,20.0,20.7,23.3,12.0,22.5,10.8,Yes,Yes,CACHE3HI_1715_92,1375,1829.8,2087.8,121.3,116.5,102.5,2477.2,107.3,46.5,27.3,16.4,0.6,0.4,-0.2,0.84,23.1,Passed HTRF,CACHE3HI_1715_92,100,100,2978,741,Flag,7.51e-06,7.51,6.1,14.5,26.48,-0.36,-0.78,0.3,47.9,30.3,100.0,Advanced to Round 2,1715,s1ccnc1[C@@H](CC)Nc2ncnc3[nH]c(c4c23)cc(F)cc4,m_27bjb____19472206____11246302,327.385,4.27,y,FIN,-48.32,-64.32,24,CCC(NC=1N=CN=C2NC=3C=C(F)C=CC3C12)C4=NC=CS4,Z8415421810,Z8415421810,90,3,NO,sRDB,83.2,Racemic or presumed racemic or meso|None|,,,92,1.0
CACHE3HI_1715_94,Z8415421841,CC(C)CC1C(NCCN1c1c2c3ccc(cc3[nH]c2ncn1)[Br])=O,100.0,nsp3_SARS2:MVC039-H10:P222987,NSP3_SARS2,"25 mM HEPES pH 7.0, 20 mM NaCl, 0.05% BSA, 0.05% Tween-20",RT,"30 cmpds, 60 D/A",12.5,200.0,Terbium-cryptate anti-His Mab/XL-665 conjugated streptavidin,0.031,5.0,100.0,29653,14011,472.5,21841,11447,524.1,2348.5,117.3,84.1,2395.6,115.6,82.1,0.86,0.86,20.0,20.7,23.3,12.0,22.5,10.8,Yes,Yes,CACHE3HI_1715_94,419.9,429.6,490.6,396.4,396.3,367.4,910.6,135.5,63.3,62.1,54.2,33.7,33.6,29.9,0.73,6.7,fluorescence inteference,,,,,,,,,,,,,,,,,,,1715,CC(C)C[C@H](C1=O)N(CCN1)c2ncnc3[nH]c(c4c23)cc(Br)cc4,m_27bjb____9140548____16463354,402.294,3.224,y,FIN,-47.09,-63.09,37,CC(C)CC1N(CCNC1=O)C=2N=CN=C3NC=4C=C(Br)C=CC4C23,Z8415421841,Z8415421841,90,3,NO,sRDB,83.2,Racemic or presumed racemic or meso|None|,,,94,0.0
CACHE3HI_1715_95,Z3395207301,C1CN(CCF)C(C1Nc1c2c3ccc(cc3[nH]c2ncn1)F)=O,100.0,nsp3_SARS2:MVC039-H10:P222987,NSP3_SARS2,"25 mM HEPES pH 7.0, 20 mM NaCl, 0.05% BSA, 0.05% Tween-20",RT,"30 cmpds, 60 D/A",12.5,200.0,Terbium-cryptate anti-His Mab/XL-665 conjugated streptavidin,0.031,5.0,100.0,3591,4439,1236.1,1846,2880,1560.1,2462.3,113.2,52.2,2264.7,110.5,32.7,0.83,0.82,21.8,20.5,20.8,8.8,20.7,8.0,Yes,Yes,CACHE3HI_1715_95,1427.2,1714.2,1912.8,162.4,133,130.6,2131.1,107.7,34.8,20.6,10.8,2.7,1.3,1.1,0.76,19.8,Passed HTRF,CACHE3HI_1715_95,65,100,2977,1491,Flag,7.27e-05,72.7,4.2,21.7,9.16,2.13,8.18,0.3,150.9,14.3,100.0,Advanced to Round 2,1715,FCCN1CC[C@H](C1=O)Nc2ncnc3[nH]c(c4c23)cc(F)cc4,m_27bjd____14427676____11246302,331.325,2.232,y,FIN,-45.87,-61.87,19,FCCN1CCC(NC=2N=CN=C3NC=4C=C(F)C=CC4C23)C1=O,m_27bjd____14427676____11246302,Z3395207301,90,3,NO,sRDB,83.2,Racemic or presumed racemic or meso|None|,,Z3395207301,95,1.0
CACHE3HI_1715_97,Z2364914230,CC(CCn1cncn1)Nc1c2c3ccc(cc3[nH]c2ncn1)F,100.0,nsp3_SARS2:MVC039-H10:P222987,NSP3_SARS2,"25 mM HEPES pH 7.0, 20 mM NaCl, 0.05% BSA, 0.05% Tween-20",RT,"30 cmpds, 60 D/A",12.5,200.0,Terbium-cryptate anti-His Mab/XL-665 conjugated streptavidin,0.031,5.0,100.0,1815,3801,2094.2,1849,4250,2298.5,2448.0,110.5,15.1,2670.4,113.1,14.5,0.85,0.89,22.1,23.6,21.6,10.4,21.7,10.4,No,No,,,,,,,,,,,,,,,,,,,,,,,,,,,,,,,,,,,,,1715,n1cncn1CC[C@@H](C)Nc2ncnc3[nH]c(c4c23)cc(F)cc4,m_27bjd____6665154____11246302,325.349,2.732,y,FIN,-47.09,-63.09,38,CC(CCN1C=NC=N1)NC=2N=CN=C3NC=4C=C(F)C=CC4C23,m_27bjd____6665154____11246302,Z2364914230,90,3,NO,sRDB,83.2,Racemic or presumed racemic or meso|None|,,Z2364914230,97,0.0
CACHE3HI_1715_98,Z8415421833,CC(c1ncnn1C)Nc1c2c3ccc(cc3[nH]c2ncn1)F,100.0,nsp3_SARS2:MVC039-H10:P222987,NSP3_SARS2,"25 mM HEPES pH 7.0, 20 mM NaCl, 0.05% BSA, 0.05% Tween-20",RT,"30 cmpds, 60 D/A",12.5,200.0,Terbium-cryptate anti-His Mab/XL-665 conjugated streptavidin,0.031,5.0,100.0,1714,3969,2315.6,1369,2908,2124.2,2462.3,113.2,6.2,2264.7,110.5,6.5,0.83,0.82,21.8,20.5,20.8,8.8,20.7,8.0,No,No,,,,,,,,,,,,,,,,,,,,,,,,,,,,,,,,,,,,,1715,Cn1ncnc1[C@@H](C)Nc2ncnc3[nH]c(c4c23)cc(F)cc4,m_27bjd____9226698____11246302,311.323,2.552,y,FIN,-47.2,-63.2,10,CC(NC=1N=CN=C2NC=3C=C(F)C=CC3C12)C4=NC=NN4C,Z8415421833,Z8415421833,90,3,NO,sRDB,83.2,Racemic or presumed racemic or meso|None|,,,98,0.0
CACHE3HI_1715_99,Z1669774038,C1C(c2ccccc2)OC(c2ccc(cc12)C(N[C@H](Cc1ccc(cc1)O)CO)=O)=O,90.0,nsp3_SARS2:MVC039-H10:P222987,NSP3_SARS2,"25 mM HEPES pH 7.0, 20 mM NaCl, 0.05% BSA, 0.05% Tween-20",RT,"30 cmpds, 60 D/A",12.5,200.0,Terbium-cryptate anti-His Mab/XL-665 conjugated streptavidin,0.031,5.0,100.0,1628,3915,2404.8,1333,2964,2223.6,2462.3,113.2,2.4,2264.7,110.5,1.9,0.83,0.82,21.8,20.5,20.8,8.8,20.7,8.0,No,No,,,,,,,,,,,,,,,,,,,,,,,,,,,,,,,,,,,,,1715,c1cc(O)ccc1C[C@@H](CO)NC(=O)c(cc2)cc(c23)C[C@@H](OC3=O)c4ccccc4,Z1574510586,417.46,,y,HTS,-64.94555517,-64.94555517,60,OC[C@@H](CC=1C=CC(O)=CC1)NC(=O)C=2C=CC=3C(=O)OC(CC3C2)C=4C=CC=CC4,Z1574510586,Z1669774038,90,3,NO,sRDB,83.2,Diastereomeric mixture|None|,,Z1669774038,99,0.0
